time,seconds_elapsed,z,y,x
1762361557996220200,0.04622021484375,-1.0027008056640625,-0.0310821533203125,0.018402099609375
1762361558006198300,0.0561982421875,-1.0021514892578125,-0.0315704345703125,0.022552490234375
1762361558016175400,0.06617529296875,-1.0010986328125,-0.0318450927734375,0.02288818359375
1762361558026152200,0.076152099609375,-0.9956817626953125,-0.0338134765625,0.0192718505859375
1762361558036129300,0.08612939453125,-0.9917755126953125,-0.0338897705078125,0.016998291015625
1762361558046106000,0.096106201171875,-0.99078369140625,-0.0330810546875,0.0158843994140625
1762361558056083200,0.106083251953125,-0.9907989501953125,-0.03265380859375,0.01763916015625
1762361558066061300,0.116061279296875,-0.9915771484375,-0.030975341796875,0.0206146240234375
1762361558076038100,0.1260380859375,-1.0000762939453125,-0.0319976806640625,0.0203399658203125
1762361558086015200,0.13601513671875,-1.0059356689453125,-0.0314788818359375,0.019073486328125
1762361558095992000,0.145991943359375,-1.0061187744140625,-0.032928466796875,0.0185394287109375
1762361558105969200,0.15596923828125,-1.003753662109375,-0.0310211181640625,0.0142974853515625
1762361558115946200,0.1659462890625,-0.9987945556640625,-0.029083251953125,0.014556884765625
1762361558125923000,0.175923095703125,-0.9945068359375,-0.0322113037109375,0.016937255859375
1762361558135901200,0.185901123046875,-0.992584228515625,-0.0298919677734375,0.0186309814453125
1762361558145878300,0.195878173828125,-0.9914093017578125,-0.02899169921875,0.0196685791015625
1762361558155855000,0.205855224609375,-0.99066162109375,-0.031707763671875,0.0204620361328125
1762361558165832200,0.215832275390625,-0.9904022216796875,-0.0340423583984375,0.0189971923828125
1762361558175809000,0.22580908203125,-0.9942626953125,-0.0322265625,0.0149078369140625
1762361558185786400,0.235786376953125,-0.9951629638671875,-0.0354156494140625,0.0101165771484375
1762361558195764200,0.24576416015625,-0.9987030029296875,-0.0392303466796875,0.008270263671875
1762361558205741000,0.255740966796875,-1.001617431640625,-0.0386505126953125,0.0063629150390625
1762361558215718100,0.26571826171875,-0.9961090087890625,-0.0372772216796875,0.00604248046875
1762361558225695200,0.2756953125,-0.9864044189453125,-0.0384674072265625,0.0080108642578125
1762361558235672300,0.28567236328125,-0.9845428466796875,-0.0371246337890625,0.008941650390625
1762361558245649200,0.295649169921875,-0.984039306640625,-0.0341796875,0.00537109375
1762361558255626200,0.305626220703125,-0.9904937744140625,-0.035675048828125,0.0077667236328125
1762361558265604400,0.315604248046875,-0.992340087890625,-0.0352325439453125,0.0121002197265625
1762361558275581200,0.325581298828125,-0.9962158203125,-0.0342254638671875,0.0169525146484375
1762361558285558300,0.335558349609375,-0.993438720703125,-0.0401763916015625,0.016387939453125
1762361558295535000,0.34553515625,-0.9858856201171875,-0.0423736572265625,0.013885498046875
1762361558305512200,0.35551220703125,-0.9847869873046875,-0.0413665771484375,0.01654052734375
1762361558315489300,0.3654892578125,-0.98687744140625,-0.041229248046875,0.0175323486328125
1762361558325466000,0.375466064453125,-0.9897613525390625,-0.042083740234375,0.016204833984375
1762361558335444200,0.3854443359375,-0.9916534423828125,-0.0392608642578125,0.0163116455078125
1762361558345421300,0.39542138671875,-0.9930572509765625,-0.0358428955078125,0.0127410888671875
1762361558355398100,0.405398193359375,-0.9931488037109375,-0.0378265380859375,0.01202392578125
1762361558365375200,0.415375244140625,-0.9859466552734375,-0.0429840087890625,0.0079803466796875
1762361558375352000,0.42535205078125,-0.9771881103515625,-0.0454864501953125,0.0061187744140625
1762361558385329200,0.4353291015625,-0.9727630615234375,-0.043853759765625,0.0035858154296875
1762361558395306000,0.445305908203125,-0.977935791015625,-0.0445556640625,0.0048980712890625
1762361558405284000,0.4552841796875,-0.98516845703125,-0.045867919921875,0.0052642822265625
1762361558415261200,0.46526123046875,-0.99530029296875,-0.0489501953125,0.0062408447265625
1762361558425238000,0.475238037109375,-0.99639892578125,-0.051422119140625,0.0069427490234375
1762361558435215400,0.48521533203125,-0.9886016845703125,-0.0542449951171875,0.0050811767578125
1762361558445192200,0.495192138671875,-0.97900390625,-0.0558929443359375,0.000640869140625
1762361558455169300,0.505169189453125,-0.9669647216796875,-0.056396484375,0.0025482177734375
1762361558465146400,0.515146484375,-0.955963134765625,-0.0566253662109375,0.0087890625
1762361558475124200,0.525124267578125,-0.9530792236328125,-0.055694580078125,0.0129852294921875
1762361558485101300,0.535101318359375,-0.953094482421875,-0.0590057373046875,0.0117340087890625
1762361558495078100,0.545078125,-0.967254638671875,-0.053985595703125,0.0157318115234375
1762361558505055200,0.55505517578125,-0.9822998046875,-0.050384521484375,0.0149383544921875
1762361558515032300,0.5650322265625,-0.98675537109375,-0.049530029296875,0.013427734375
1762361558525009200,0.575009033203125,-0.9846649169921875,-0.049041748046875,0.01422119140625
1762361558534986200,0.584986328125,-0.975494384765625,-0.0475921630859375,0.0174560546875
1762361558544964400,0.59496435546875,-0.9691925048828125,-0.047607421875,0.0154571533203125
1762361558554941200,0.604941162109375,-0.97808837890625,-0.0510406494140625,0.0164642333984375
1762361558564918300,0.614918212890625,-0.9910888671875,-0.050933837890625,0.0135650634765625
1762361558574895000,0.62489501953125,-1.0074615478515625,-0.049285888671875,0.0112152099609375
1762361558584872200,0.6348720703125,-1.0138397216796875,-0.0463104248046875,0.010650634765625
1762361558594849000,0.64484912109375,-1.0084228515625,-0.047576904296875,0.0102386474609375
1762361558604826000,0.654826171875,-1.0026092529296875,-0.047760009765625,0.0081024169921875
1762361558614804200,0.66480419921875,-0.996551513671875,-0.0457611083984375,0.00762939453125
1762361558624781000,0.674781005859375,-0.9915924072265625,-0.0443115234375,0.0070648193359375
1762361558634758100,0.684758056640625,-0.98602294921875,-0.0422515869140625,0.010223388671875
1762361558644735000,0.69473486328125,-0.9840240478515625,-0.0425262451171875,0.0127105712890625
1762361558654712300,0.70471240234375,-0.9866180419921875,-0.0414886474609375,0.0140838623046875
1762361558664689400,0.714689453125,-0.9871368408203125,-0.043304443359375,0.00872802734375
1762361558674666200,0.724666259765625,-0.995574951171875,-0.0460052490234375,0.0050811767578125
1762361558684644000,0.73464404296875,-1.0090179443359375,-0.049652099609375,0.003753662109375
1762361558694621200,0.74462109375,-1.01104736328125,-0.0494384765625,-0.0017242431640625
1762361558704598300,0.754598388671875,-0.999267578125,-0.0491485595703125,-0.0056610107421875
1762361558714575400,0.764575439453125,-0.9857940673828125,-0.048828125,-0.0050811767578125
1762361558724552200,0.77455224609375,-0.9783172607421875,-0.0496826171875,-0.006317138671875
1762361558734529300,0.784529296875,-0.9757080078125,-0.0488433837890625,-0.0106353759765625
1762361558744506000,0.794506103515625,-0.9766845703125,-0.0491790771484375,-0.009124755859375
1762361558754484200,0.804484130859375,-0.975341796875,-0.0496368408203125,-0.0021514892578125
1762361558764461300,0.81446142578125,-0.97332763671875,-0.04656982421875,0.0001678466796875
1762361558774438100,0.824438232421875,-0.97265625,-0.0427398681640625,0.0018310546875
1762361558784415200,0.834415283203125,-0.9730224609375,-0.042388916015625,0.0031585693359375
1762361558794392000,0.84439208984375,-0.9697418212890625,-0.0419158935546875,0.00225830078125
1762361558804369200,0.854369140625,-0.9735107421875,-0.0431671142578125,0.0039215087890625
1762361558814346200,0.86434619140625,-0.979278564453125,-0.0451812744140625,0.001220703125
1762361558824323300,0.8743232421875,-0.9847259521484375,-0.046356201171875,-0.0018768310546875
1762361558834301400,0.884301513671875,-0.9931640625,-0.0443572998046875,0.000396728515625
1762361558844278300,0.8942783203125,-0.99114990234375,-0.041717529296875,-0.0011749267578125
1762361558854255400,0.90425537109375,-0.98114013671875,-0.0429229736328125,-0.00469970703125
1762361558864232400,0.914232421875,-0.9728851318359375,-0.042999267578125,-0.0017242431640625
1762361558874209300,0.924209228515625,-0.96905517578125,-0.040771484375,0.0019378662109375
1762361558884186600,0.9341865234375,-0.96142578125,-0.0391693115234375,0.0037689208984375
1762361558894163500,0.94416357421875,-0.964599609375,-0.0374298095703125,0.00634765625
1762361558904141300,0.954141357421875,-0.9782257080078125,-0.036529541015625,0.0057220458984375
1762361558914118700,0.96411865234375,-0.988189697265625,-0.0347137451171875,0.0040283203125
1762361558924095500,0.974095458984375,-0.994232177734375,-0.032318115234375,0.003448486328125
1762361558934072600,0.984072509765625,-0.9941253662109375,-0.029876708984375,0.0026092529296875
1762361558944049400,0.99404931640625,-0.9940643310546875,-0.0324554443359375,0.0030517578125
1762361558954026500,1.004026611328125,-0.996368408203125,-0.0355072021484375,0.004302978515625
1762361558964003600,1.014003662109375,-0.99664306640625,-0.0387725830078125,0.0031890869140625
1762361558973981400,1.0239814453125,-0.9934234619140625,-0.0406036376953125,0.0052642822265625
1762361558983958500,1.03395849609375,-0.9858551025390625,-0.0389556884765625,0.0064849853515625
1762361558993935400,1.043935302734375,-0.9701080322265625,-0.037750244140625,0.0051727294921875
1762361559003912400,1.053912353515625,-0.9588165283203125,-0.0348052978515625,0.01080322265625
1762361559013889500,1.0638896484375,-0.95904541015625,-0.034332275390625,0.017364501953125
1762361559023866400,1.073866455078125,-0.9658203125,-0.03759765625,0.0168304443359375
1762361559033843500,1.083843505859375,-0.9796295166015625,-0.036285400390625,0.0143280029296875
1762361559043820300,1.0938203125,-0.991058349609375,-0.0328826904296875,0.014190673828125
1762361559053798400,1.10379833984375,-0.9940948486328125,-0.0334320068359375,0.0156707763671875
1762361559063775500,1.113775390625,-0.9948272705078125,-0.03887939453125,0.0140380859375
1762361559073752300,1.12375244140625,-0.9973907470703125,-0.040496826171875,0.0084228515625
1762361559083729400,1.1337294921875,-0.9974212646484375,-0.0396575927734375,0.003570556640625
1762361559093706500,1.14370654296875,-0.993133544921875,-0.0420074462890625,0.004608154296875
1762361559103683600,1.15368359375,-0.9833526611328125,-0.0424041748046875,0.004119873046875
1762361559113660400,1.163660400390625,-0.9823150634765625,-0.0390472412109375,0.005889892578125
1762361559123637500,1.173637451171875,-0.9819488525390625,-0.0366668701171875,0.0084381103515625
1762361559133615600,1.18361572265625,-0.9768218994140625,-0.0344390869140625,0.0113525390625
1762361559143592400,1.193592529296875,-0.97509765625,-0.0309906005859375,0.012908935546875
1762361559153569500,1.203569580078125,-0.9810638427734375,-0.03131103515625,0.0117340087890625
1762361559163546600,1.213546630859375,-0.992828369140625,-0.038970947265625,0.0074920654296875
1762361559173523500,1.2235234375,-1.0088653564453125,-0.041046142578125,0.00579833984375
1762361559183500500,1.23350048828125,-1.0216064453125,-0.038360595703125,0.0022430419921875
1762361559193477400,1.243477294921875,-1.0228118896484375,-0.0324859619140625,0.00335693359375
1762361559203455500,1.25345556640625,-1.013214111328125,-0.030792236328125,0.0008544921875
1762361559213432600,1.2634326171875,-0.9997406005859375,-0.034759521484375,-0.0003204345703125
1762361559223409400,1.273409423828125,-0.9880523681640625,-0.03643798828125,0.0052337646484375
1762361559233386500,1.283386474609375,-0.986480712890625,-0.0367431640625,0.00848388671875
1762361559243363300,1.29336328125,-0.98919677734375,-0.038238525390625,0.00933837890625
1762361559253340400,1.30334033203125,-0.9915313720703125,-0.040069580078125,0.0056915283203125
1762361559263317200,1.313317138671875,-0.9929656982421875,-0.0392303466796875,0.002532958984375
1762361559273294300,1.32329443359375,-0.994537353515625,-0.0387420654296875,-0.0013427734375
1762361559283272400,1.3332724609375,-1.000885009765625,-0.0419158935546875,-0.0012054443359375
1762361559293249300,1.343249267578125,-1.005523681640625,-0.04205322265625,-0.0026397705078125
1762361559303226400,1.353226318359375,-0.9991607666015625,-0.0392608642578125,-0.001190185546875
1762361559313203500,1.363203369140625,-0.9899444580078125,-0.0424957275390625,0.000732421875
1762361559323180500,1.3731806640625,-0.984619140625,-0.0413665771484375,-0.0000152587890625
1762361559333157600,1.38315771484375,-0.981658935546875,-0.0401458740234375,-0.00146484375
1762361559343134500,1.393134521484375,-0.9811553955078125,-0.0388336181640625,-0.0010986328125
1762361559353111600,1.403111572265625,-0.97821044921875,-0.03948974609375,-0.0006866455078125
1762361559363089700,1.413089599609375,-0.975982666015625,-0.0404052734375,-0.00531005859375
1762361559373066500,1.42306640625,-0.980926513671875,-0.0429840087890625,-0.008544921875
1762361559383043600,1.433043701171875,-0.987213134765625,-0.043182373046875,-0.009124755859375
1762361559393020400,1.4430205078125,-0.9870758056640625,-0.0438079833984375,-0.009185791015625
1762361559402997500,1.45299755859375,-0.9872589111328125,-0.03997802734375,-0.0058441162109375
1762361559412974300,1.462974365234375,-0.9908905029296875,-0.0376129150390625,-0.0086517333984375
1762361559422951400,1.472951416015625,-1.0006866455078125,-0.0384368896484375,-0.0069732666015625
1762361559432929500,1.482929443359375,-1.0130157470703125,-0.0386199951171875,-0.0058135986328125
1762361559442906400,1.49290625,-1.012908935546875,-0.036773681640625,-0.0118408203125
1762361559452883500,1.502883544921875,-1.0061187744140625,-0.0379180908203125,-0.009796142578125
1762361559462860300,1.5128603515625,-1.0020599365234375,-0.0400848388671875,-0.0024261474609375
1762361559472837400,1.52283740234375,-0.99224853515625,-0.0388336181640625,-0.0055999755859375
1762361559482814500,1.532814453125,-0.9752655029296875,-0.0440826416015625,-0.009796142578125
1762361559492791300,1.542791259765625,-0.9656524658203125,-0.048797607421875,-0.0074310302734375
1762361559502768600,1.5527685546875,-0.970001220703125,-0.0469818115234375,0.002349853515625
1762361559512746200,1.562746337890625,-0.9834747314453125,-0.0456390380859375,0.00469970703125
1762361559522723300,1.572723388671875,-0.9965972900390625,-0.0452728271484375,0.0020751953125
1762361559532700400,1.582700439453125,-0.99871826171875,-0.0448760986328125,-0.0042572021484375
1762361559542677500,1.592677490234375,-0.993194580078125,-0.045867919921875,-0.00689697265625
1762361559552654600,1.602654541015625,-0.9829864501953125,-0.048248291015625,-0.008148193359375
1762361559562631400,1.61263134765625,-0.9773406982421875,-0.0523834228515625,-0.004669189453125
1762361559572608500,1.6226083984375,-0.98193359375,-0.0532379150390625,0.0010528564453125
1762361559582585300,1.63258544921875,-0.9921722412109375,-0.051971435546875,0.0063323974609375
1762361559592563500,1.6425634765625,-0.9902801513671875,-0.0485687255859375,-0.00048828125
1762361559602540500,1.65254052734375,-0.9873809814453125,-0.047027587890625,-0.004302978515625
1762361559612517400,1.662517333984375,-0.9936370849609375,-0.047882080078125,0.0027008056640625
1762361559622494500,1.672494384765625,-1.0014190673828125,-0.0458526611328125,0.00274658203125
1762361559632471600,1.682471435546875,-0.992645263671875,-0.0437164306640625,-0.0005950927734375
1762361559642448400,1.692448486328125,-0.9854888916015625,-0.0418548583984375,0.0018463134765625
1762361559652425500,1.702425537109375,-0.982818603515625,-0.0429534912109375,0.00262451171875
1762361559662402300,1.71240234375,-0.9778900146484375,-0.0437164306640625,-0.0006561279296875
1762361559672380400,1.72238037109375,-0.97369384765625,-0.0458526611328125,0.001251220703125
1762361559682357500,1.732357421875,-0.97943115234375,-0.0440826416015625,0.0038604736328125
1762361559692334300,1.742334228515625,-0.9907989501953125,-0.0441436767578125,0.0014190673828125
1762361559702311400,1.7523115234375,-0.9883880615234375,-0.04571533203125,-0.002655029296875
1762361559712288300,1.762288330078125,-0.985809326171875,-0.0443115234375,-0.0046539306640625
1762361559722265600,1.772265625,-0.9910736083984375,-0.0461883544921875,0.0009002685546875
1762361559732242400,1.782242431640625,-0.995361328125,-0.0444793701171875,0.001251220703125
1762361559742219500,1.792219482421875,-0.9947662353515625,-0.0439605712890625,-0.0003814697265625
1762361559752197600,1.80219775390625,-0.9902801513671875,-0.0418853759765625,0.000457763671875
1762361559762174500,1.812174560546875,-0.983489990234375,-0.042755126953125,-0.0040283203125
1762361559772151600,1.822151611328125,-0.9873809814453125,-0.0446624755859375,-0.0075836181640625
1762361559782128400,1.83212841796875,-1.0046539306640625,-0.0481109619140625,-0.009002685546875
1762361559792105500,1.84210546875,-1.0156097412109375,-0.05072021484375,-0.012603759765625
1762361559802082600,1.85208251953125,-1.01007080078125,-0.047271728515625,-0.0152587890625
1762361559812059400,1.862059326171875,-0.9920654296875,-0.0416259765625,-0.015167236328125
1762361559822036200,1.8720361328125,-0.966949462890625,-0.0390625,-0.0141754150390625
1762361559832014000,1.88201416015625,-0.944976806640625,-0.0402069091796875,-0.0089263916015625
1762361559841991200,1.8919912109375,-0.941986083984375,-0.039794921875,-0.0003814697265625
1762361559851968000,1.901968017578125,-0.95660400390625,-0.0394287109375,0.004547119140625
1762361559861945000,1.911945068359375,-0.9694976806640625,-0.0392303466796875,-0.0023956298828125
1762361559871922200,1.921922119140625,-0.9801025390625,-0.03973388671875,-0.0065765380859375
1762361559881899000,1.93189892578125,-0.990570068359375,-0.035369873046875,-0.01123046875
1762361559891876000,1.9418759765625,-1.002166748046875,-0.0357666015625,-0.0108795166015625
1762361559901853200,1.951853271484375,-1.001922607421875,-0.036163330078125,-0.01025390625
1762361559911831000,1.9618310546875,-0.9974365234375,-0.0401153564453125,-0.0160980224609375
1762361559921808100,1.97180810546875,-0.9958953857421875,-0.0469818115234375,-0.019378662109375
1762361559931785200,1.98178515625,-0.9936981201171875,-0.04974365234375,-0.01507568359375
1762361559941762300,1.99176220703125,-0.982635498046875,-0.0413665771484375,-0.0039215087890625
1762361559951739100,2.0017392578125,-0.98138427734375,-0.0357513427734375,0.0035400390625
1762361559961716200,2.01171630859375,-0.991790771484375,-0.037506103515625,-0.0004119873046875
1762361559971693000,2.021693115234375,-0.99456787109375,-0.039459228515625,-0.0081024169921875
1762361559981670100,2.031670166015625,-0.9929351806640625,-0.0372467041015625,-0.007080078125
1762361559991648300,2.041648193359375,-1.000823974609375,-0.033966064453125,-0.00189208984375
1762361560001625000,2.051625,-1.0094146728515625,-0.0340728759765625,0.00030517578125
1762361560011602200,2.061602294921875,-1.019805908203125,-0.031158447265625,0.0023651123046875
1762361560021579300,2.071579345703125,-1.0231170654296875,-0.0311431884765625,0.0062255859375
1762361560031556000,2.08155615234375,-1.019317626953125,-0.0308990478515625,0.006622314453125
1762361560041533200,2.091533203125,-1.01849365234375,-0.0338287353515625,0.000518798828125
1762361560051510000,2.101510009765625,-1.01226806640625,-0.034423828125,0.00018310546875
1762361560061487000,2.111487060546875,-0.999298095703125,-0.033782958984375,0.0034027099609375
1762361560071465200,2.12146533203125,-0.9866790771484375,-0.033447265625,0.00799560546875
1762361560081442000,2.131442138671875,-0.990570068359375,-0.0308837890625,0.011016845703125
1762361560091419100,2.141419189453125,-1.001800537109375,-0.0337677001953125,0.0110626220703125
1762361560101396000,2.15139599609375,-1.01202392578125,-0.037689208984375,0.00738525390625
1762361560111373300,2.161373291015625,-1.0199127197265625,-0.0369873046875,-0.001800537109375
1762361560121350100,2.17135009765625,-1.0278472900390625,-0.0338134765625,-0.00616455078125
1762361560131327200,2.1813271484375,-1.033477783203125,-0.031524658203125,-0.0020751953125
1762361560141304300,2.19130419921875,-1.0329132080078125,-0.030548095703125,-0.0024261474609375
1762361560151281200,2.20128125,-1.0182037353515625,-0.03192138671875,-0.0046234130859375
1762361560161259300,2.21125927734375,-0.9986419677734375,-0.032745361328125,-0.0046844482421875
1762361560171236000,2.221236083984375,-0.9859466552734375,-0.0356292724609375,-0.003204345703125
1762361560181213200,2.231213134765625,-0.9861297607421875,-0.03399658203125,0.0010223388671875
1762361560191190300,2.241190185546875,-0.9967041015625,-0.0330963134765625,0.00213623046875
1762361560201167000,2.2511669921875,-1.0062408447265625,-0.034393310546875,0.002288818359375
1762361560211144200,2.261144287109375,-1.013458251953125,-0.037353515625,0.0035858154296875
1762361560221121000,2.27112109375,-1.0131683349609375,-0.03765869140625,0.00048828125
1762361560231098000,2.28109814453125,-1.00079345703125,-0.03411865234375,-0.001800537109375
1762361560241076200,2.291076171875,-0.983612060546875,-0.03070068359375,0.00299072265625
1762361560251053000,2.301052978515625,-0.96697998046875,-0.031097412109375,0.00482177734375
1762361560261030100,2.311030029296875,-0.9534759521484375,-0.0337982177734375,0.00836181640625
1762361560271007000,2.321007080078125,-0.9485931396484375,-0.0355377197265625,0.01910400390625
1762361560280984000,2.330984130859375,-0.96209716796875,-0.0372314453125,0.0306549072265625
1762361560290961200,2.340961181640625,-0.9853973388671875,-0.033355712890625,0.03192138671875
1762361560300938200,2.350938232421875,-1.00701904296875,-0.0294036865234375,0.031280517578125
1762361560310915300,2.360915283203125,-1.0223236083984375,-0.026092529296875,0.028167724609375
1762361560320893000,2.370892822265625,-1.0296630859375,-0.025665283203125,0.0196075439453125
1762361560330870300,2.380870361328125,-1.0294189453125,-0.0214080810546875,0.017333984375
1762361560340847400,2.390847412109375,-1.0206451416015625,-0.0235595703125,0.01702880859375
1762361560350824200,2.40082421875,-1.0065155029296875,-0.02978515625,0.015625
1762361560360801300,2.41080126953125,-0.9962615966796875,-0.025421142578125,0.022430419921875
1762361560370778000,2.420778076171875,-0.9974517822265625,-0.0228729248046875,0.020477294921875
1762361560380755200,2.430755126953125,-0.996002197265625,-0.0197296142578125,0.012725830078125
1762361560390732000,2.44073193359375,-0.992889404296875,-0.0180511474609375,0.007965087890625
1762361560400709000,2.450709228515625,-0.9964447021484375,-0.018280029296875,0.0106201171875
1762361560410687200,2.460687255859375,-1.0050048828125,-0.014984130859375,0.0128936767578125
1762361560420664000,2.4706640625,-1.0114593505859375,-0.0162200927734375,0.0173492431640625
1762361560430641200,2.48064111328125,-1.014007568359375,-0.01544189453125,0.0149993896484375
1762361560440618000,2.490617919921875,-1.0101318359375,-0.01141357421875,0.01239013671875
1762361560450595000,2.500594970703125,-1.003753662109375,-0.011962890625,0.0081329345703125
1762361560460572200,2.510572265625,-0.99554443359375,-0.0185089111328125,0.00799560546875
1762361560470549000,2.520549072265625,-0.989410400390625,-0.02191162109375,0.0059356689453125
1762361560480526300,2.5305263671875,-0.9912872314453125,-0.0247344970703125,0.0054168701171875
1762361560490503200,2.540503173828125,-0.9957275390625,-0.0267486572265625,0.0084991455078125
1762361560500481000,2.55048095703125,-1.0015411376953125,-0.0278472900390625,0.008697509765625
1762361560510458000,2.5604580078125,-1.0053558349609375,-0.0261993408203125,0.006591796875
1762361560520435200,2.570435302734375,-1.0058746337890625,-0.0234222412109375,0.0002899169921875
1762361560530412300,2.580412353515625,-1.0072784423828125,-0.0231781005859375,-0.004119873046875
1762361560540389000,2.59038916015625,-1.011322021484375,-0.0256195068359375,-0.006103515625
1762361560550366200,2.6003662109375,-1.0162811279296875,-0.0302734375,-0.005767822265625
1762361560560343300,2.61034326171875,-1.0098114013671875,-0.0291900634765625,-0.0062713623046875
1762361560570320100,2.620320068359375,-0.998260498046875,-0.0243988037109375,-0.001983642578125
1762361560580298200,2.63029833984375,-0.9895477294921875,-0.0218048095703125,0.000946044921875
1762361560590275000,2.640275146484375,-0.982147216796875,-0.02392578125,0.005218505859375
1762361560600252200,2.650252197265625,-0.9799957275390625,-0.0240631103515625,0.007110595703125
1762361560610229200,2.660229248046875,-0.9757537841796875,-0.0219879150390625,0.003570556640625
1762361560620206000,2.6702060546875,-0.9785614013671875,-0.02337646484375,0.00323486328125
1762361560630183200,2.68018310546875,-0.9853057861328125,-0.021209716796875,0.0052337646484375
1762361560640160000,2.690159912109375,-0.9957275390625,-0.0161895751953125,0.009002685546875
1762361560650137000,2.70013720703125,-1.0059814453125,-0.0155792236328125,0.00946044921875
1762361560660114200,2.7101142578125,-1.0118408203125,-0.0146026611328125,0.0068359375
1762361560670092000,2.720092041015625,-1.01568603515625,-0.013458251953125,0.0013580322265625
1762361560680069000,2.730069091796875,-1.009857177734375,-0.014678955078125,-0.000946044921875
1762361560690046000,2.7400458984375,-1.0065765380859375,-0.011749267578125,0.0050506591796875
1762361560700023300,2.750023193359375,-1.0012664794921875,-0.00927734375,0.015472412109375
1762361560710000000,2.760000244140625,-1.00408935546875,-0.0072174072265625,0.0217742919921875
1762361560719977200,2.769977294921875,-1.0035247802734375,-0.0074005126953125,0.0154876708984375
1762361560729954300,2.779954345703125,-1.00213623046875,-0.011474609375,0.0096893310546875
1762361560739931100,2.78993115234375,-1.0025482177734375,-0.01446533203125,0.0088348388671875
1762361560749908200,2.799908203125,-1.01031494140625,-0.012725830078125,0.0066680908203125
1762361560759886300,2.80988623046875,-1.0168914794921875,-0.0129852294921875,0.004241943359375
1762361560769863200,2.81986328125,-1.02069091796875,-0.016754150390625,0.0002899169921875
1762361560779840300,2.82984033203125,-1.02044677734375,-0.0149993896484375,-0.00067138671875
1762361560789817000,2.839817138671875,-1.01263427734375,-0.014312744140625,0.0001220703125
1762361560799794200,2.849794189453125,-1.003173828125,-0.0142974853515625,0.0064697265625
1762361560809771000,2.85977099609375,-0.9979248046875,-0.012237548828125,0.0090484619140625
1762361560819748000,2.869748046875,-0.994140625,-0.0100555419921875,0.010498046875
1762361560829729300,2.879729248046875,-0.9970855712890625,-0.0078887939453125,0.009613037109375
1762361560839707400,2.889707275390625,-1.00091552734375,-0.006103515625,0.00787353515625
1762361560849684200,2.899684326171875,-1.002899169921875,-0.00445556640625,0.0099029541015625
1762361560859661300,2.909661376953125,-1.0036468505859375,-0.004730224609375,0.01220703125
1762361560869638100,2.91963818359375,-1.0004119873046875,-0.006744384765625,0.0083465576171875
1762361560879615200,2.929615234375,-0.9944000244140625,-0.008819580078125,0.0015411376953125
1762361560889592000,2.939592041015625,-0.992340087890625,-0.0111083984375,-0.0040740966796875
1762361560899569200,2.949569091796875,-0.990142822265625,-0.01409912109375,-0.0018463134765625
1762361560909546500,2.95954638671875,-0.996368408203125,-0.01593017578125,0.0003509521484375
1762361560919523300,2.9695234375,-1.0017242431640625,-0.0147857666015625,0.0020599365234375
1762361560929501200,2.979501220703125,-0.9964599609375,-0.0127716064453125,0.0035552978515625
1762361560939478300,2.989478271484375,-0.9938507080078125,-0.0150146484375,0.0081024169921875
1762361560949455400,2.999455322265625,-0.99969482421875,-0.01300048828125,0.0151519775390625
1762361560959432400,3.009432373046875,-1.006561279296875,-0.008270263671875,0.016265869140625
1762361560969409300,3.0194091796875,-1.0055389404296875,-0.0060577392578125,0.015228271484375
1762361560979386400,3.029386474609375,-1.00201416015625,-0.00738525390625,0.0118560791015625
1762361560989363200,3.03936328125,-0.999267578125,-0.0077056884765625,0.01055908203125
1762361560999340300,3.04934033203125,-0.997283935546875,-0.006072998046875,0.0129241943359375
1762361561009317400,3.0593173828125,-0.9983367919921875,-0.0042877197265625,0.0163421630859375
1762361561019295200,3.069295166015625,-1.006439208984375,-0.00433349609375,0.01361083984375
1762361561029272300,3.079272216796875,-1.0129547119140625,-0.0068359375,0.009918212890625
1762361561039249200,3.089249267578125,-1.008758544921875,-0.009979248046875,0.007843017578125
1762361561049226200,3.099226318359375,-1.0001068115234375,-0.00628662109375,0.0116729736328125
1762361561059203300,3.109203369140625,-0.9940948486328125,-0.0045013427734375,0.0157928466796875
1762361561069180200,3.11918017578125,-0.9868621826171875,-0.0040435791015625,0.01507568359375
1762361561079157200,3.1291572265625,-0.9839019775390625,-0.0045623779296875,0.0162353515625
1762361561089134300,3.13913427734375,-0.989959716796875,-0.006103515625,0.017730712890625
1762361561099111400,3.149111328125,-0.992706298828125,-0.0064544677734375,0.01458740234375
1762361561109089300,3.15908935546875,-0.991363525390625,-0.004913330078125,0.0127105712890625
1762361561119066000,3.169066162109375,-0.98565673828125,-0.0038299560546875,0.0107269287109375
1762361561129043500,3.17904345703125,-0.9804840087890625,-0.0026397705078125,0.012054443359375
1762361561139020300,3.189020263671875,-0.975830078125,-0.0023651123046875,0.017181396484375
1762361561148997400,3.198997314453125,-0.979248046875,-0.0042724609375,0.018890380859375
1762361561158974200,3.20897412109375,-0.988006591796875,-0.002471923828125,0.015380859375
1762361561168951300,3.218951416015625,-0.9993133544921875,-0.000335693359375,0.0097198486328125
1762361561178928400,3.228928466796875,-1.0089263916015625,-0.00042724609375,0.000335693359375
1762361561188905200,3.2389052734375,-1.0081787109375,-0.00238037109375,-0.004608154296875
1762361561198883300,3.24888330078125,-1.001068115234375,-0.002227783203125,-0.0036773681640625
1762361561208860400,3.2588603515625,-0.9928741455078125,0.0006561279296875,-0.00201416015625
1762361561218837200,3.268837158203125,-0.988555908203125,-0.001434326171875,0.0064239501953125
1762361561228814300,3.278814453125,-0.98492431640625,-0.001007080078125,0.014617919921875
1762361561238791200,3.288791259765625,-0.9864349365234375,-0.000030517578125,0.014556884765625
1762361561248768300,3.298768310546875,-0.994354248046875,-0.00091552734375,0.0172576904296875
1762361561258745000,3.3087451171875,-1.0001220703125,-0.004058837890625,0.0175933837890625
1762361561268722200,3.31872216796875,-1.0077362060546875,-0.0049896240234375,0.018585205078125
1762361561278699500,3.328699462890625,-1.01123046875,-0.0013427734375,0.01727294921875
1762361561288676400,3.33867626953125,-1.01141357421875,0.00311279296875,0.0182952880859375
1762361561298654200,3.348654296875,-1.012664794921875,0.00213623046875,0.0225067138671875
1762361561308631300,3.35863134765625,-1.0153656005859375,0.0015869140625,0.024444580078125
1762361561318608400,3.3686083984375,-1.023651123046875,0.00079345703125,0.023590087890625
1762361561328585500,3.37858544921875,-1.0261688232421875,-0.0002593994140625,0.01806640625
1762361561338562300,3.388562255859375,-1.0224609375,-0.000579833984375,0.017242431640625
1762361561348539400,3.398539306640625,-1.0177459716796875,0.0004730224609375,0.018585205078125
1762361561358516200,3.40851611328125,-1.013427734375,-0.0015411376953125,0.0193939208984375
1762361561368493300,3.418493408203125,-1.0090179443359375,-0.0016937255859375,0.0215911865234375
1762361561378470100,3.42847021484375,-1.0074310302734375,-0.003875732421875,0.0190277099609375
1762361561388448300,3.4384482421875,-1.008087158203125,-0.001983642578125,0.0146636962890625
1762361561398425300,3.44842529296875,-1.0084686279296875,-0.0043182373046875,0.0117645263671875
1762361561408402200,3.458402099609375,-1.00848388671875,-0.0032958984375,0.0084381103515625
1762361561418379300,3.468379150390625,-1.00494384765625,0.000762939453125,0.0090179443359375
1762361561428356000,3.478356201171875,-1.0028076171875,0.0022430419921875,0.0076904296875
1762361561438333200,3.488333251953125,-0.9974822998046875,0.0003814697265625,0.0077362060546875
1762361561448310300,3.498310302734375,-0.9898529052734375,-0.004058837890625,0.007568359375
1762361561458287400,3.508287353515625,-0.982818603515625,-0.0056304931640625,0.0063629150390625
1762361561468264400,3.518264404296875,-0.9809722900390625,-0.0050506591796875,0.009063720703125
1762361561478241300,3.5282412109375,-0.9926605224609375,-0.004058837890625,0.01202392578125
1762361561488219100,3.53821923828125,-1.00640869140625,0.000640869140625,0.0112457275390625
1762361561498196500,3.548196533203125,-1.0120697021484375,0.003265380859375,0.0107269287109375
1762361561508173300,3.55817333984375,-1.0130615234375,0.00286865234375,0.0116729736328125
1762361561518150400,3.568150390625,-1.0084381103515625,0.002227783203125,0.012664794921875
1762361561528127200,3.578127197265625,-1.0084686279296875,0.0040283203125,0.01593017578125
1762361561538104300,3.588104248046875,-1.0105133056640625,0.0074615478515625,0.019317626953125
1762361561548081400,3.598081298828125,-1.012451171875,0.009918212890625,0.01971435546875
1762361561558058200,3.608058349609375,-1.0157012939453125,0.010009765625,0.0201873779296875
1762361561568035300,3.618035400390625,-1.0264129638671875,0.00994873046875,0.0186309814453125
1762361561578013200,3.62801318359375,-1.026702880859375,0.0099945068359375,0.0185546875
1762361561587990300,3.637990234375,-1.01959228515625,0.0118865966796875,0.0284576416015625
1762361561597967400,3.64796728515625,-1.0127105712890625,0.01312255859375,0.0337371826171875
1762361561607944200,3.657944091796875,-1.005615234375,0.0117034912109375,0.0352630615234375
1762361561617921300,3.66792138671875,-0.9989776611328125,0.010711669921875,0.031951904296875
1762361561627898000,3.677898193359375,-1.00030517578125,0.0090484619140625,0.0325164794921875
1762361561637875200,3.687875244140625,-1.0136871337890625,0.0084381103515625,0.033905029296875
1762361561647852300,3.697852294921875,-1.0229949951171875,0.008514404296875,0.0311737060546875
1762361561657829400,3.707829345703125,-1.03155517578125,0.007232666015625,0.0346832275390625
1762361561667806500,3.717806396484375,-1.0416717529296875,0.006683349609375,0.0303802490234375
1762361561677784300,3.727784423828125,-1.04168701171875,0.0052947998046875,0.0193634033203125
1762361561687761400,3.737761474609375,-1.0362396240234375,0.0067138671875,0.0183868408203125
1762361561697738200,3.74773828125,-1.0279083251953125,0.009063720703125,0.0221710205078125
1762361561707715300,3.75771533203125,-1.015350341796875,0.00628662109375,0.0237274169921875
1762361561717692400,3.7676923828125,-1.0060577392578125,0.004730224609375,0.023284912109375
1762361561727669200,3.777669189453125,-0.9986114501953125,0.00390625,0.0240478515625
1762361561737646300,3.787646240234375,-0.999420166015625,0.001861572265625,0.0311431884765625
1762361561747623200,3.797623046875,-1.0019989013671875,0.0017852783203125,0.0336761474609375
1762361561757600300,3.807600341796875,-1.0043792724609375,0.0004730224609375,0.0313720703125
1762361561767577000,3.8175771484375,-1.00506591796875,0.000335693359375,0.02783203125
1762361561777555200,3.82755517578125,-1.0063934326171875,0.000274658203125,0.0272216796875
1762361561787532300,3.8375322265625,-1.0056304931640625,0.0003814697265625,0.0309295654296875
1762361561797509000,3.847509033203125,-1.009735107421875,0.003021240234375,0.0306243896484375
1762361561807486200,3.857486328125,-1.0179443359375,0.00244140625,0.032073974609375
1762361561817463300,3.86746337890625,-1.022308349609375,-0.000518798828125,0.032562255859375
1762361561827435800,3.877435791015625,-1.0179595947265625,-0.0022430419921875,0.0262603759765625
1762361561837412900,3.887412841796875,-1.0040130615234375,-0.002777099609375,0.0267486572265625
1762361561847389700,3.8973896484375,-0.9935302734375,-0.0029449462890625,0.0273284912109375
1762361561857366800,3.90736669921875,-0.9862823486328125,-0.0050048828125,0.02777099609375
1762361561867343600,3.917343505859375,-0.9873809814453125,-0.0033416748046875,0.031158447265625
1762361561877321700,3.92732177734375,-0.998931884765625,-0.0020904541015625,0.0319366455078125
1762361561887298800,3.937298828125,-1.012969970703125,-0.0027313232421875,0.0312347412109375
1762361561897275600,3.947275634765625,-1.0216522216796875,-0.0012969970703125,0.0294342041015625
1762361561907252700,3.957252685546875,-1.0232086181640625,-0.0021820068359375,0.0271148681640625
1762361561917229800,3.967229736328125,-1.0063323974609375,-0.0037994384765625,0.0279541015625
1762361561927206700,3.97720654296875,-0.982452392578125,-0.002471923828125,0.0277862548828125
1762361561937183700,3.987183837890625,-0.9684295654296875,-0.0006866455078125,0.0330047607421875
1762361561947160800,3.997160888671875,-0.9678497314453125,-0.0028228759765625,0.036956787109375
1762361561957138000,4.007137939453125,-0.9724884033203125,-0.0069122314453125,0.032501220703125
1762361561967114800,4.01711474609375,-0.977508544921875,-0.0126953125,0.0283660888671875
1762361561977092900,4.0270927734375,-0.986968994140625,-0.0144805908203125,0.0276336669921875
1762361561987070000,4.037070068359375,-0.9915924072265625,-0.011749267578125,0.0254058837890625
1762361561997046800,4.047046875,-0.9954681396484375,-0.0083160400390625,0.022430419921875
1762361562007023900,4.05702392578125,-1.00115966796875,-0.007049560546875,0.0286407470703125
1762361562017000700,4.067000732421875,-1.0040283203125,-0.008575439453125,0.0344085693359375
1762361562026977800,4.076977783203125,-0.9940948486328125,-0.007781982421875,0.037017822265625
1762361562036955000,4.086954833984375,-0.9832916259765625,-0.00714111328125,0.041046142578125
1762361562046931700,4.096931640625,-0.9774627685546875,-0.00799560546875,0.0500335693359375
1762361562056908800,4.10690869140625,-0.9771270751953125,-0.0045928955078125,0.0540313720703125
1762361562066885600,4.1168857421875,-0.9841766357421875,-0.005584716796875,0.0567626953125
1762361562076863700,4.12686376953125,-0.997772216796875,-0.003509521484375,0.0531768798828125
1762361562086840800,4.1368408203125,-1.010467529296875,-0.0030517578125,0.0409088134765625
1762361562096817700,4.146817626953125,-1.0135955810546875,-0.0072784423828125,0.0332489013671875
1762361562106794800,4.156794677734375,-1.01824951171875,-0.0083465576171875,0.02642822265625
1762361562116771600,4.166771484375,-1.01861572265625,-0.01068115234375,0.026885986328125
1762361562126749000,4.1767490234375,-1.0147705078125,-0.0133514404296875,0.02996826171875
1762361562136725800,4.186725830078125,-1.007843017578125,-0.0156097412109375,0.0312347412109375
1762361562146702800,4.196702880859375,-0.9914398193359375,-0.01513671875,0.0286712646484375
1762361562156680000,4.206679931640625,-0.982208251953125,-0.017791748046875,0.0271453857421875
1762361562166656800,4.21665673828125,-0.9764862060546875,-0.01959228515625,0.0245361328125
1762361562176633900,4.2266337890625,-0.9727783203125,-0.025909423828125,0.0249481201171875
1762361562186612000,4.236612060546875,-0.97552490234375,-0.027740478515625,0.03125
1762361562196588800,4.2465888671875,-0.9786376953125,-0.027252197265625,0.0359954833984375
1762361562206566000,4.25656591796875,-0.978302001953125,-0.0288848876953125,0.0302734375
1762361562216542700,4.266542724609375,-0.975494384765625,-0.026702880859375,0.0205078125
1762361562226519800,4.276519775390625,-0.97113037109375,-0.0273895263671875,0.0145721435546875
1762361562236496600,4.28649658203125,-0.967010498046875,-0.0298614501953125,0.0121612548828125
1762361562246473700,4.2964736328125,-0.964569091796875,-0.0305023193359375,0.017730712890625
1762361562256450800,4.306450927734375,-0.95965576171875,-0.0325469970703125,0.021240234375
1762361562266427600,4.316427734375,-0.9626312255859375,-0.03424072265625,0.02044677734375
1762361562276404700,4.32640478515625,-0.97369384765625,-0.0351715087890625,0.02081298828125
1762361562286382600,4.336382568359375,-0.980804443359375,-0.0352020263671875,0.0158538818359375
1762361562296359700,4.346359619140625,-0.99102783203125,-0.02972412109375,0.0142669677734375
1762361562306336800,4.356336669921875,-1.0001220703125,-0.0296173095703125,0.01495361328125
1762361562316313900,4.36631396484375,-0.9949951171875,-0.0307464599609375,0.01617431640625
1762361562326291000,4.376291015625,-0.9906005859375,-0.031463623046875,0.0206451416015625
1762361562336267800,4.386267822265625,-0.9829254150390625,-0.0294952392578125,0.0261993408203125
1762361562346244900,4.396244873046875,-0.976226806640625,-0.02630615234375,0.0301055908203125
1762361562356221700,4.4062216796875,-0.9763946533203125,-0.02764892578125,0.0290069580078125
1762361562366198800,4.41619873046875,-0.9789886474609375,-0.0296478271484375,0.02679443359375
1762361562376175900,4.42617578125,-0.9830780029296875,-0.0311279296875,0.027618408203125
1762361562386152700,4.436152587890625,-0.9820709228515625,-0.029266357421875,0.02813720703125
1762361562396130800,4.446130859375,-0.9760894775390625,-0.0279388427734375,0.0298614501953125
1762361562406107600,4.456107666015625,-0.9704742431640625,-0.02716064453125,0.0281524658203125
1762361562416084700,4.466084716796875,-0.9727783203125,-0.02880859375,0.025299072265625
1762361562426061800,4.476061767578125,-0.98291015625,-0.03179931640625,0.0255279541015625
1762361562436038700,4.48603857421875,-0.9965362548828125,-0.0333251953125,0.0228424072265625
1762361562446015700,4.496015625,-1.0042724609375,-0.03204345703125,0.0180816650390625
1762361562455992600,4.50599267578125,-1.0072174072265625,-0.0297088623046875,0.0207672119140625
1762361562465970000,4.515969970703125,-1.0040283203125,-0.03076171875,0.02325439453125
1762361562475946800,4.52594677734375,-0.998748779296875,-0.0308685302734375,0.0248260498046875
1762361562485923800,4.535923828125,-0.9917144775390625,-0.03204345703125,0.0243377685546875
1762361562495901000,4.54590087890625,-0.984954833984375,-0.0356292724609375,0.0207061767578125
1762361562505878800,4.555878662109375,-0.9800262451171875,-0.0372467041015625,0.0203399658203125
1762361562515856000,4.56585595703125,-0.9750823974609375,-0.0377197265625,0.0215606689453125
1762361562525833000,4.5758330078125,-0.980010986328125,-0.038818359375,0.018768310546875
1762361562535809800,4.585809814453125,-0.98455810546875,-0.038848876953125,0.01629638671875
1762361562545787000,4.595786865234375,-0.985198974609375,-0.0373382568359375,0.0184173583984375
1762361562555763700,4.605763671875,-0.9786529541015625,-0.0383758544921875,0.021087646484375
1762361562565740800,4.61574072265625,-0.97259521484375,-0.042327880859375,0.0239715576171875
1762361562575717600,4.625717529296875,-0.9684906005859375,-0.044219970703125,0.023468017578125
1762361562585694700,4.63569482421875,-0.9690399169921875,-0.0434417724609375,0.0193328857421875
1762361562595671800,4.645671875,-0.9703826904296875,-0.0452117919921875,0.0238800048828125
1762361562605648600,4.655648681640625,-0.9781951904296875,-0.043670654296875,0.027435302734375
1762361562615626800,4.665626708984375,-0.98388671875,-0.0407257080078125,0.0219879150390625
1762361562625603600,4.675603515625,-0.9825897216796875,-0.0415802001953125,0.01800537109375
1762361562635580700,4.68558056640625,-0.976837158203125,-0.04095458984375,0.0194854736328125
1762361562645557800,4.695557861328125,-0.9739227294921875,-0.042236328125,0.02008056640625
1762361562655534800,4.705534912109375,-0.9729766845703125,-0.043487548828125,0.0180206298828125
1762361562665512000,4.715511962890625,-0.976226806640625,-0.040924072265625,0.0141448974609375
1762361562675488800,4.72548876953125,-0.9853057861328125,-0.036102294921875,0.0144500732421875
1762361562685465900,4.7354658203125,-0.990814208984375,-0.0370635986328125,0.0165557861328125
1762361562695442700,4.745442626953125,-0.99798583984375,-0.0386199951171875,0.0148773193359375
1762361562705419800,4.755419677734375,-1.005218505859375,-0.037567138671875,0.0134429931640625
1762361562715396900,4.76539697265625,-1.000946044921875,-0.0347442626953125,0.0121307373046875
1762361562725374700,4.775374755859375,-0.9924774169921875,-0.0368194580078125,0.018768310546875
1762361562735351800,4.785351806640625,-0.9873046875,-0.0395660400390625,0.019195556640625
1762361562745328600,4.79532861328125,-0.981903076171875,-0.0388641357421875,0.01617431640625
1762361562755305700,4.8053056640625,-0.9832000732421875,-0.0372772216796875,0.01507568359375
1762361562765282800,4.81528271484375,-0.9886474609375,-0.0361175537109375,0.0173797607421875
1762361562775259600,4.825259765625,-0.9922637939453125,-0.0356597900390625,0.0215606689453125
1762361562785236700,4.83523681640625,-0.9910736083984375,-0.0386962890625,0.023193359375
1762361562795213800,4.8452138671875,-0.985076904296875,-0.0413818359375,0.0201416015625
1762361562805191000,4.85519091796875,-0.982666015625,-0.04345703125,0.0187530517578125
1762361562815167700,4.865167724609375,-0.9846343994140625,-0.04351806640625,0.01593017578125
1762361562825145600,4.8751455078125,-0.9938507080078125,-0.0438079833984375,0.0145111083984375
1762361562835123500,4.88512353515625,-1.00103759765625,-0.047882080078125,0.013427734375
1762361562845100500,4.8951005859375,-1.0035858154296875,-0.0483551025390625,0.01123046875
1762361562855077600,4.90507763671875,-0.99920654296875,-0.0459136962890625,0.007293701171875
1762361562865054700,4.9150546875,-0.9867706298828125,-0.04888916015625,0.0066070556640625
1762361562875031600,4.925031494140625,-0.9736328125,-0.0525970458984375,0.008819580078125
1762361562885008600,4.935008544921875,-0.9677734375,-0.056640625,0.011627197265625
1762361562894985700,4.94498583984375,-0.9649505615234375,-0.0559844970703125,0.0128021240234375
1762361562904962600,4.954962646484375,-0.9684600830078125,-0.0534515380859375,0.0137481689453125
1762361562914939600,4.964939697265625,-0.97845458984375,-0.05224609375,0.011871337890625
1762361562924916500,4.97491650390625,-0.9936981201171875,-0.0530853271484375,0.013275146484375
1762361562934893600,4.9848935546875,-1.006927490234375,-0.0523223876953125,0.019439697265625
1762361562944870400,4.994870361328125,-0.99908447265625,-0.0541839599609375,0.019500732421875
1762361562954848500,5.0048486328125,-0.9827423095703125,-0.0559844970703125,0.017120361328125
1762361562964825600,5.01482568359375,-0.9579315185546875,-0.056915283203125,0.0151519775390625
1762361562974802400,5.024802490234375,-0.941986083984375,-0.055908203125,0.0147247314453125
1762361562984779500,5.034779541015625,-0.9441986083984375,-0.05584716796875,0.0192718505859375
1762361562994756400,5.04475634765625,-0.951904296875,-0.0598907470703125,0.020538330078125
1762361563004733400,5.0547333984375,-0.9595489501953125,-0.0606842041015625,0.0150604248046875
1762361563014710800,5.064710693359375,-0.9651031494140625,-0.0586395263671875,0.0117950439453125
1762361563024687600,5.0746875,-0.9738616943359375,-0.0595855712890625,0.0069580078125
1762361563034664700,5.084664794921875,-0.9839019775390625,-0.059967041015625,0.0081939697265625
1762361563044641500,5.0946416015625,-0.9921417236328125,-0.057769775390625,0.014617919921875
1762361563054618600,5.10461865234375,-0.9864654541015625,-0.058013916015625,0.0152587890625
1762361563064596700,5.1145966796875,-0.9752044677734375,-0.0587158203125,0.01055908203125
1762361563074573600,5.124573486328125,-0.961822509765625,-0.0586090087890625,0.00726318359375
1762361563084550700,5.134550537109375,-0.959503173828125,-0.06304931640625,0.0089569091796875
1762361563094527500,5.144527587890625,-0.9678802490234375,-0.062103271484375,0.0126190185546875
1762361563104504600,5.154504638671875,-0.97552490234375,-0.0608367919921875,0.01666259765625
1762361563114481700,5.164481689453125,-0.982025146484375,-0.057098388671875,0.01593017578125
1762361563124458500,5.17445849609375,-0.9801025390625,-0.0552825927734375,0.0136871337890625
1762361563134435600,5.184435546875,-0.97467041015625,-0.056365966796875,0.0126800537109375
1762361563144412400,5.194412353515625,-0.96875,-0.0585784912109375,0.0130462646484375
1762361563154389500,5.204389404296875,-0.9651336669921875,-0.0591888427734375,0.01544189453125
1762361563164366600,5.21436669921875,-0.9659423828125,-0.0614013671875,0.0155792236328125
1762361563174343700,5.22434375,-0.97119140625,-0.061859130859375,0.013427734375
1762361563184321500,5.234321533203125,-0.973724365234375,-0.0634918212890625,0.01458740234375
1762361563194298600,5.244298583984375,-0.97003173828125,-0.0619049072265625,0.01605224609375
1762361563204275700,5.254275634765625,-0.970855712890625,-0.0606231689453125,0.0186767578125
1762361563214252500,5.26425244140625,-0.9835968017578125,-0.0624542236328125,0.0191802978515625
1762361563224229600,5.274229736328125,-0.994537353515625,-0.0627593994140625,0.0185394287109375
1762361563234206700,5.284206787109375,-1.0002899169921875,-0.061248779296875,0.0137939453125
1762361563244183600,5.29418359375,-0.9992828369140625,-0.06182861328125,0.0093841552734375
1762361563254160600,5.30416064453125,-0.993927001953125,-0.06231689453125,0.0066070556640625
1762361563264137500,5.314137451171875,-0.9889068603515625,-0.0655670166015625,0.006011962890625
1762361563274114600,5.324114501953125,-0.9830322265625,-0.0656890869140625,0.001617431640625
1762361563284091400,5.33409130859375,-0.9779815673828125,-0.06390380859375,-0.0040740966796875
1762361563294069500,5.344069580078125,-0.975921630859375,-0.062713623046875,-0.006011962890625
1762361563304046600,5.354046630859375,-0.979766845703125,-0.0664215087890625,-0.006134033203125
1762361563314023400,5.3640234375,-0.995086669921875,-0.0696563720703125,-0.00567626953125
1762361563324000500,5.37400048828125,-1.0074920654296875,-0.0704193115234375,-0.0069122314453125
1762361563333977300,5.383977294921875,-1.0137939453125,-0.0649871826171875,-0.000640869140625
1762361563343954700,5.39395458984375,-1.0156707763671875,-0.0587921142578125,0.003936767578125
1762361563353931800,5.403931884765625,-1.017120361328125,-0.057373046875,0.00433349609375
1762361563363908600,5.41390869140625,-1.01092529296875,-0.0582275390625,0.0075531005859375
1762361563373885700,5.4238857421875,-1.0007476806640625,-0.057830810546875,0.0095977783203125
1762361563383862500,5.433862548828125,-0.9987640380859375,-0.0575408935546875,0.0121307373046875
1762361563393839600,5.443839599609375,-0.998382568359375,-0.0566864013671875,0.0125274658203125
1762361563403816400,5.45381640625,-0.99969482421875,-0.0574798583984375,0.008148193359375
1762361563413794600,5.463794677734375,-0.999542236328125,-0.05792236328125,0.0082244873046875
1762361563423771600,5.473771728515625,-0.997955322265625,-0.056640625,0.0067291259765625
1762361563433748500,5.48374853515625,-0.998291015625,-0.0548858642578125,0.002838134765625
1762361563443725600,5.4937255859375,-0.9952545166015625,-0.0542144775390625,0.0028076171875
1762361563453702700,5.50370263671875,-0.9890289306640625,-0.0518646240234375,0.0052337646484375
1762361563463679500,5.513679443359375,-0.9860076904296875,-0.0498504638671875,0.0037994384765625
1762361563473656600,5.523656494140625,-0.989654541015625,-0.049102783203125,0.0051422119140625
1762361563483633400,5.53363330078125,-0.987213134765625,-0.0526885986328125,0.0055389404296875
1762361563493610500,5.543610595703125,-0.9837188720703125,-0.0544281005859375,0.0027618408203125
1762361563503587600,5.553587646484375,-0.9836883544921875,-0.052093505859375,0.00274658203125
1762361563513564700,5.563564697265625,-0.9904632568359375,-0.0505828857421875,0.0024261474609375
1762361563523541800,5.573541748046875,-0.9965667724609375,-0.049591064453125,-0.0010986328125
1762361563533518600,5.5835185546875,-1.001800537109375,-0.0527496337890625,-0.0005035400390625
1762361563543496700,5.59349658203125,-1.0014801025390625,-0.0506744384765625,0.000732421875
1762361563553473500,5.6034736328125,-0.9925079345703125,-0.0522918701171875,-0.00018310546875
1762361563563450600,5.61345068359375,-0.984588623046875,-0.0537872314453125,0.0009002685546875
1762361563573427700,5.623427734375,-0.9798126220703125,-0.05706787109375,-0.000274658203125
1762361563583404500,5.633404541015625,-0.975433349609375,-0.057586669921875,-0.00177001953125
1762361563593381600,5.643381591796875,-0.972259521484375,-0.05572509765625,-0.00244140625
1762361563603358500,5.6533583984375,-0.978729248046875,-0.0558929443359375,-0.00433349609375
1762361563613335600,5.66333544921875,-0.9882354736328125,-0.054412841796875,-0.004119873046875
1762361563623312400,5.6733125,-0.9915618896484375,-0.053375244140625,-0.0053863525390625
1762361563633289500,5.68328955078125,-0.9956207275390625,-0.053314208984375,-0.006622314453125
1762361563643266600,5.6932666015625,-0.9988250732421875,-0.0592803955078125,-0.0112457275390625
1762361563653243600,5.70324365234375,-0.992431640625,-0.05633544921875,-0.0141143798828125
1762361563663221500,5.713221435546875,-0.9897918701171875,-0.0540618896484375,-0.016021728515625
1762361563673198300,5.7231982421875,-0.9857025146484375,-0.0572357177734375,-0.01507568359375
1762361563683175700,5.73317578125,-0.9845123291015625,-0.058502197265625,-0.0137176513671875
1762361563693152800,5.74315283203125,-0.9902191162109375,-0.0561370849609375,-0.014862060546875
1762361563703129600,5.753129638671875,-0.994659423828125,-0.053497314453125,-0.018890380859375
1762361563713106700,5.763106689453125,-1.000396728515625,-0.05157470703125,-0.0168914794921875
1762361563723083500,5.77308349609375,-1.00091552734375,-0.0479736328125,-0.0173492431640625
1762361563733060600,5.783060546875,-0.996337890625,-0.0509796142578125,-0.01776123046875
1762361563743037400,5.793037353515625,-1.00091552734375,-0.0567474365234375,-0.0188446044921875
1762361563753014500,5.8030146484375,-1.001861572265625,-0.0535888671875,-0.021270751953125
1762361563762991600,5.81299169921875,-0.9969482421875,-0.0503082275390625,-0.02435302734375
1762361563772968400,5.822968505859375,-0.9941558837890625,-0.04949951171875,-0.02362060546875
1762361563782946600,5.832946533203125,-0.9938201904296875,-0.0501251220703125,-0.026092529296875
1762361563792923600,5.842923583984375,-0.9933013916015625,-0.0523223876953125,-0.026397705078125
1762361563802900500,5.852900390625,-0.99200439453125,-0.055572509765625,-0.0243988037109375
1762361563812877600,5.862877685546875,-0.98712158203125,-0.059234619140625,-0.023345947265625
1762361563822854400,5.8728544921875,-0.9827728271484375,-0.0615386962890625,-0.024017333984375
1762361563832831000,5.8828310546875,-0.9812774658203125,-0.0613250732421875,-0.022857666015625
1762361563842808000,5.89280810546875,-0.9814605712890625,-0.06451416015625,-0.027435302734375
1762361563852785000,5.902784912109375,-0.9801025390625,-0.0638885498046875,-0.03094482421875
1762361563862762000,5.912761962890625,-0.9748687744140625,-0.061920166015625,-0.0331573486328125
1762361563872738800,5.92273876953125,-0.9788665771484375,-0.0625457763671875,-0.033203125
1762361563882716000,5.9327158203125,-0.986419677734375,-0.0653228759765625,-0.0339202880859375
1762361563892693000,5.94269287109375,-0.987640380859375,-0.0667572021484375,-0.038604736328125
1762361563902669800,5.952669921875,-0.988983154296875,-0.0637054443359375,-0.0441741943359375
1762361563912648000,5.96264794921875,-0.9980010986328125,-0.0607757568359375,-0.044891357421875
1762361563922625000,5.972625,-1.00885009765625,-0.060699462890625,-0.0406646728515625
1762361563932601900,5.982601806640625,-1.0167236328125,-0.0601654052734375,-0.0410003662109375
1762361563942579000,5.992578857421875,-1.0143890380859375,-0.0612335205078125,-0.042327880859375
1762361563952555800,6.0025556640625,-1.00543212890625,-0.0621185302734375,-0.042388916015625
1762361563962533000,6.012533203125,-0.99969482421875,-0.060211181640625,-0.0435943603515625
1762361563972510000,6.022510009765625,-0.9976348876953125,-0.0584869384765625,-0.04400634765625
1762361563982487000,6.032487060546875,-0.9983673095703125,-0.0576934814453125,-0.0431060791015625
1762361563992464100,6.042464111328125,-0.9967803955078125,-0.057159423828125,-0.0428466796875
1762361564002441000,6.05244091796875,-0.99041748046875,-0.0571136474609375,-0.0439453125
1762361564012418000,6.06241796875,-0.979095458984375,-0.0594635009765625,-0.0455780029296875
1762361564022395000,6.072394775390625,-0.9699249267578125,-0.0601959228515625,-0.0472259521484375
1762361564032373000,6.082373046875,-0.9698333740234375,-0.0607757568359375,-0.0466766357421875
1762361564042350000,6.09235009765625,-0.97650146484375,-0.0609588623046875,-0.046539306640625
1762361564052327000,6.102326904296875,-0.984100341796875,-0.0599517822265625,-0.0512542724609375
1762361564062304000,6.112303955078125,-0.99224853515625,-0.0592498779296875,-0.0545806884765625
1762361564072280800,6.12228076171875,-0.996337890625,-0.05999755859375,-0.0615386962890625
1762361564082258000,6.1322578125,-0.9995880126953125,-0.062286376953125,-0.0607147216796875
1762361564092234800,6.14223486328125,-0.998443603515625,-0.061767578125,-0.05828857421875
1762361564102211800,6.1522119140625,-0.998565673828125,-0.060211181640625,-0.0601043701171875
1762361564112189000,6.16218896484375,-0.9937744140625,-0.05987548828125,-0.062744140625
1762361564122166000,6.172166015625,-0.9897613525390625,-0.06103515625,-0.0606231689453125
1762361564132143000,6.18214306640625,-0.98297119140625,-0.062164306640625,-0.0577850341796875
1762361564142120000,6.192119873046875,-0.97869873046875,-0.057647705078125,-0.058319091796875
1762361564152097000,6.202096923828125,-0.97540283203125,-0.0545196533203125,-0.054840087890625
1762361564162075100,6.2120751953125,-0.974456787109375,-0.058990478515625,-0.059356689453125
1762361564172052000,6.222052001953125,-0.9732818603515625,-0.0644683837890625,-0.0624237060546875
1762361564182029000,6.232029052734375,-0.9748992919921875,-0.0653533935546875,-0.0636444091796875
1762361564192006000,6.242005859375,-0.9770660400390625,-0.057586669921875,-0.0625152587890625
1762361564201983000,6.25198291015625,-0.98504638671875,-0.0628509521484375,-0.0634918212890625
1762361564211959800,6.261959716796875,-0.9896240234375,-0.06341552734375,-0.0659027099609375
1762361564221937000,6.27193701171875,-0.9898223876953125,-0.0634918212890625,-0.0713043212890625
1762361564231914000,6.2819140625,-0.997528076171875,-0.0611419677734375,-0.073394775390625
1762361564241890800,6.291890869140625,-0.9986419677734375,-0.060577392578125,-0.07525634765625
1762361564251868000,6.301867919921875,-0.988800048828125,-0.0623931884765625,-0.077667236328125
1762361564261845000,6.311844970703125,-0.9770660400390625,-0.0634613037109375,-0.0822906494140625
1762361564271822000,6.321822021484375,-0.9697265625,-0.0632171630859375,-0.08343505859375
1762361564281799000,6.331798828125,-0.9685516357421875,-0.0629425048828125,-0.085845947265625
1762361564291776800,6.34177685546875,-0.9694366455078125,-0.060333251953125,-0.092620849609375
1762361564301754000,6.351754150390625,-0.97711181640625,-0.05621337890625,-0.0932159423828125
1762361564311731000,6.36173095703125,-0.989471435546875,-0.050872802734375,-0.09320068359375
1762361564321708000,6.3717080078125,-1.0044708251953125,-0.049835205078125,-0.0936737060546875
1762361564331685000,6.38168505859375,-1.015869140625,-0.0568389892578125,-0.0910797119140625
1762361564341662000,6.391661865234375,-1.013153076171875,-0.0613555908203125,-0.093414306640625
1762361564351639000,6.40163916015625,-1.0006561279296875,-0.0619049072265625,-0.0977935791015625
1762361564361616000,6.411615966796875,-0.9914093017578125,-0.060455322265625,-0.0989837646484375
1762361564371593000,6.421593017578125,-0.98291015625,-0.05609130859375,-0.099761962890625
1762361564381569800,6.43156982421875,-0.9791717529296875,-0.0528564453125,-0.1006622314453125
1762361564391547000,6.441546875,-0.9803619384765625,-0.053497314453125,-0.1006011962890625
1762361564401524000,6.45152392578125,-0.986328125,-0.0518798828125,-0.100494384765625
1762361564411501000,6.4615009765625,-0.994232177734375,-0.05242919921875,-0.1004180908203125
1762361564421479000,6.47147900390625,-0.997100830078125,-0.060760498046875,-0.10107421875
1762361564431455700,6.481455810546875,-0.9901885986328125,-0.0615692138671875,-0.106170654296875
1762361564441432800,6.491432861328125,-0.9838714599609375,-0.0576629638671875,-0.1113739013671875
1762361564451410200,6.50141015625,-0.980255126953125,-0.0592498779296875,-0.1126708984375
1762361564461387000,6.511386962890625,-0.9796905517578125,-0.05828857421875,-0.1142578125
1762361564471364000,6.521364013671875,-0.978546142578125,-0.0564727783203125,-0.1195831298828125
1762361564481341000,6.5313408203125,-0.979461669921875,-0.056732177734375,-0.119293212890625
1762361564491318000,6.541318115234375,-0.9788055419921875,-0.0609588623046875,-0.119110107421875
1762361564501294800,6.551294921875,-0.97723388671875,-0.0668182373046875,-0.1258544921875
1762361564511272000,6.56127197265625,-0.979736328125,-0.0704345703125,-0.1316070556640625
1762361564521249000,6.5712490234375,-0.9774322509765625,-0.070526123046875,-0.1325225830078125
1762361564531225900,6.581225830078125,-0.973876953125,-0.0713043212890625,-0.1342010498046875
1762361564541203000,6.591202880859375,-0.973785400390625,-0.0708770751953125,-0.13458251953125
1762361564551180800,6.601180908203125,-0.9783935546875,-0.072021484375,-0.135101318359375
1762361564561158000,6.611157958984375,-0.9780426025390625,-0.0686798095703125,-0.140899658203125
1762361564571135000,6.621135009765625,-0.9790496826171875,-0.0707550048828125,-0.1474456787109375
1762361564581111800,6.63111181640625,-0.9813232421875,-0.0738677978515625,-0.1490631103515625
1762361564591089000,6.6410888671875,-0.98260498046875,-0.073486328125,-0.152862548828125
1762361564601066000,6.65106591796875,-0.9812164306640625,-0.0743865966796875,-0.1529693603515625
1762361564611043000,6.66104296875,-0.983917236328125,-0.074005126953125,-0.1524505615234375
1762361564621020000,6.67102001953125,-0.992095947265625,-0.070770263671875,-0.1530303955078125
1762361564630997000,6.6809970703125,-1.0009002685546875,-0.069183349609375,-0.1568145751953125
1762361564640974000,6.69097412109375,-1.0020599365234375,-0.06927490234375,-0.159332275390625
1762361564650951000,6.700950927734375,-1.00152587890625,-0.068634033203125,-0.15985107421875
1762361564660928000,6.710927978515625,-0.996856689453125,-0.0707550048828125,-0.1596527099609375
1762361564670904800,6.72090478515625,-0.992340087890625,-0.0732879638671875,-0.1605987548828125
1762361564680882000,6.7308818359375,-0.9879302978515625,-0.07135009765625,-0.1618804931640625
1762361564690860000,6.740860107421875,-0.9821929931640625,-0.071624755859375,-0.162841796875
1762361564700836900,6.7508369140625,-0.977630615234375,-0.0722808837890625,-0.1639251708984375
1762361564710814000,6.76081396484375,-0.976837158203125,-0.07135009765625,-0.16473388671875
1762361564720790800,6.770790771484375,-0.9752349853515625,-0.0670318603515625,-0.1600799560546875
1762361564730768000,6.780767822265625,-0.97198486328125,-0.06549072265625,-0.1561431884765625
1762361564740745000,6.790744873046875,-0.9747467041015625,-0.069091796875,-0.1569061279296875
1762361564750722000,6.80072216796875,-0.97625732421875,-0.07366943359375,-0.160736083984375
1762361564760699100,6.81069921875,-0.9703521728515625,-0.0750885009765625,-0.165557861328125
1762361564770676000,6.820676025390625,-0.9650726318359375,-0.073974609375,-0.168914794921875
1762361564780653000,6.830653076171875,-0.9648284912109375,-0.0707855224609375,-0.1643829345703125
1762361564790630000,6.8406298828125,-0.96563720703125,-0.070037841796875,-0.161407470703125
1762361564800607000,6.85060693359375,-0.973907470703125,-0.0676116943359375,-0.159088134765625
1762361564810583800,6.860583740234375,-0.9763641357421875,-0.0699615478515625,-0.1585693359375
1762361564820562000,6.87056201171875,-0.973724365234375,-0.069305419921875,-0.1564178466796875
1762361564830539300,6.880539306640625,-0.9727630615234375,-0.0673370361328125,-0.15545654296875
1762361564840516000,6.89051611328125,-0.9679107666015625,-0.067901611328125,-0.1573486328125
1762361564850493200,6.9004931640625,-0.9670867919921875,-0.0678558349609375,-0.1560821533203125
1762361564860470000,6.910469970703125,-0.970001220703125,-0.0670318603515625,-0.152374267578125
1762361564870447000,6.920447021484375,-0.9755096435546875,-0.0642547607421875,-0.1526947021484375
1762361564880424200,6.930424072265625,-0.9811553955078125,-0.0621337890625,-0.1551666259765625
1762361564890401000,6.940401123046875,-0.981964111328125,-0.0612945556640625,-0.15777587890625
1762361564900378000,6.950378173828125,-0.97955322265625,-0.0633544921875,-0.1664886474609375
1762361564910355200,6.960355224609375,-0.9715728759765625,-0.0675048828125,-0.171966552734375
1762361564920332300,6.970332275390625,-0.9621124267578125,-0.07220458984375,-0.1780242919921875
1762361564930309000,6.98030908203125,-0.9594879150390625,-0.070709228515625,-0.184326171875
1762361564940286200,6.9902861328125,-0.9610748291015625,-0.070281982421875,-0.1875
1762361564950263300,7.00026318359375,-0.9661407470703125,-0.0716552734375,-0.1917724609375
1762361564960241200,7.0102412109375,-0.968109130859375,-0.070587158203125,-0.1896820068359375
1762361564970218200,7.02021826171875,-0.970458984375,-0.067474365234375,-0.1882171630859375
1762361564980195000,7.030195068359375,-0.9749603271484375,-0.0649871826171875,-0.189788818359375
1762361564990172200,7.040172119140625,-0.97503662109375,-0.064727783203125,-0.1934356689453125
1762361565000149200,7.050149169921875,-0.9725494384765625,-0.0661163330078125,-0.19403076171875
1762361565010126000,7.0601259765625,-0.967254638671875,-0.0726318359375,-0.1970977783203125
1762361565020103200,7.070103271484375,-0.961944580078125,-0.0759429931640625,-0.2048492431640625
1762361565030080000,7.080080078125,-0.9565582275390625,-0.0691070556640625,-0.20855712890625
1762361565040057000,7.09005712890625,-0.9531402587890625,-0.0599822998046875,-0.2053375244140625
1762361565050034000,7.100033935546875,-0.9536285400390625,-0.055145263671875,-0.20416259765625
1762361565060011300,7.11001123046875,-0.96160888671875,-0.0569305419921875,-0.2115936279296875
1762361565069988400,7.11998828125,-0.9707183837890625,-0.0624847412109375,-0.21734619140625
1762361565079965200,7.129965087890625,-0.97509765625,-0.0675811767578125,-0.2178192138671875
1762361565089942300,7.1399423828125,-0.9733734130859375,-0.0638580322265625,-0.215301513671875
1762361565099919000,7.149919189453125,-0.97222900390625,-0.062103271484375,-0.21240234375
1762361565109897200,7.159897216796875,-0.973114013671875,-0.0639190673828125,-0.212799072265625
1762361565119874300,7.169874267578125,-0.9702606201171875,-0.0677337646484375,-0.2123260498046875
1762361565129851100,7.17985107421875,-0.9632720947265625,-0.0693359375,-0.2137908935546875
1762361565139828200,7.189828125,-0.9561767578125,-0.0674591064453125,-0.2165069580078125
1762361565149805000,7.19980517578125,-0.9561309814453125,-0.0731658935546875,-0.2161865234375
1762361565159782100,7.2097822265625,-0.96307373046875,-0.0714263916015625,-0.2177276611328125
1762361565169759200,7.21975927734375,-0.971405029296875,-0.067108154296875,-0.21441650390625
1762361565179736000,7.229736083984375,-0.9801788330078125,-0.0672454833984375,-0.214691162109375
1762361565189713200,7.239713134765625,-0.984893798828125,-0.0665130615234375,-0.2122955322265625
1762361565199690000,7.24968994140625,-0.9850616455078125,-0.0606689453125,-0.209564208984375
1762361565209667300,7.259667236328125,-0.982421875,-0.058258056640625,-0.2094268798828125
1762361565219644200,7.26964404296875,-0.9808349609375,-0.0574798583984375,-0.2133026123046875
1762361565229621200,7.279621337890625,-0.979766845703125,-0.0569305419921875,-0.2157745361328125
1762361565239598300,7.289598388671875,-0.985015869140625,-0.059967041015625,-0.2155303955078125
1762361565249576200,7.299576171875,-0.990264892578125,-0.0572357177734375,-0.21490478515625
1762361565259553300,7.30955322265625,-0.9899749755859375,-0.0545654296875,-0.21832275390625
1762361565269530000,7.319530029296875,-0.992767333984375,-0.0550994873046875,-0.2206878662109375
1762361565279507200,7.329507080078125,-0.9912261962890625,-0.0503997802734375,-0.2194366455078125
1762361565289484300,7.339484375,-0.9829864501953125,-0.05462646484375,-0.21710205078125
1762361565299461000,7.349461181640625,-0.9746551513671875,-0.056396484375,-0.21966552734375
1762361565309438200,7.359438232421875,-0.9683837890625,-0.0561981201171875,-0.220123291015625
1762361565319415000,7.3694150390625,-0.968109130859375,-0.052764892578125,-0.2211151123046875
1762361565329392000,7.37939208984375,-0.9629669189453125,-0.0489501953125,-0.2262115478515625
1762361565339369000,7.389368896484375,-0.9611663818359375,-0.0552825927734375,-0.22955322265625
1762361565349346000,7.399345947265625,-0.961669921875,-0.0589141845703125,-0.2324981689453125
1762361565359323100,7.4093232421875,-0.9634246826171875,-0.0561981201171875,-0.2347869873046875
1762361565369300200,7.41930029296875,-0.96661376953125,-0.0514678955078125,-0.231689453125
1762361565379277300,7.42927734375,-0.971405029296875,-0.05023193359375,-0.2315521240234375
1762361565389254100,7.439254150390625,-0.97613525390625,-0.050445556640625,-0.23382568359375
1762361565399232300,7.449232177734375,-0.9701385498046875,-0.05206298828125,-0.2356414794921875
1762361565409209300,7.459209228515625,-0.96380615234375,-0.0519561767578125,-0.2391510009765625
1762361565419186200,7.469186279296875,-0.9566802978515625,-0.055206298828125,-0.24169921875
1762361565429163300,7.479163330078125,-0.95208740234375,-0.057098388671875,-0.23980712890625
1762361565439140000,7.48914013671875,-0.951446533203125,-0.05615234375,-0.2377166748046875
1762361565449117200,7.4991171875,-0.953125,-0.0485382080078125,-0.2395782470703125
1762361565459094000,7.509093994140625,-0.94970703125,-0.049102783203125,-0.2439422607421875
1762361565469071000,7.519071044921875,-0.9474334716796875,-0.0548248291015625,-0.25042724609375
1762361565479048200,7.529048095703125,-0.947662353515625,-0.0544586181640625,-0.2472686767578125
1762361565489025000,7.53902490234375,-0.9490203857421875,-0.055389404296875,-0.2418670654296875
1762361565499002000,7.549002197265625,-0.9588470458984375,-0.0536651611328125,-0.2392578125
1762361565508979200,7.558979248046875,-0.9638519287109375,-0.0505218505859375,-0.239654541015625
1762361565518956300,7.568956298828125,-0.9567718505859375,-0.0527801513671875,-0.2400054931640625
1762361565528933000,7.57893310546875,-0.9432220458984375,-0.054656982421875,-0.2451629638671875
1762361565538910200,7.58891015625,-0.939544677734375,-0.055145263671875,-0.2484130859375
1762361565548887300,7.59888720703125,-0.9366912841796875,-0.0556182861328125,-0.2472686767578125
1762361565558865200,7.608865234375,-0.9376678466796875,-0.0569305419921875,-0.24847412109375
1762361565568842200,7.61884228515625,-0.947357177734375,-0.0556182861328125,-0.252044677734375
1762361565578819300,7.6288193359375,-0.962799072265625,-0.05401611328125,-0.25518798828125
1762361565588796200,7.638796142578125,-0.9746246337890625,-0.050140380859375,-0.255645751953125
1762361565598773200,7.648773193359375,-0.97393798828125,-0.0467681884765625,-0.2516021728515625
1762361565608750000,7.65875,-0.9754791259765625,-0.0499114990234375,-0.24664306640625
1762361565618727200,7.66872705078125,-0.9769287109375,-0.0521392822265625,-0.25079345703125
1762361565628704000,7.6787041015625,-0.9705047607421875,-0.053985595703125,-0.254150390625
1762361565638681000,7.68868115234375,-0.9555816650390625,-0.05572509765625,-0.2523193359375
1762361565648658200,7.698658203125,-0.9440155029296875,-0.0537567138671875,-0.2545318603515625
1762361565658635300,7.70863525390625,-0.9379119873046875,-0.04766845703125,-0.25823974609375
1762361565668612400,7.7186123046875,-0.936492919921875,-0.0511016845703125,-0.260986328125
1762361565678589200,7.728589111328125,-0.9405975341796875,-0.054718017578125,-0.2641143798828125
1762361565688566300,7.738566162109375,-0.9487457275390625,-0.0534210205078125,-0.2682037353515625
1762361565698543000,7.748543212890625,-0.9528350830078125,-0.05328369140625,-0.26824951171875
1762361565708520200,7.758520263671875,-0.9535675048828125,-0.0511627197265625,-0.2734222412109375
1762361565718498300,7.768498291015625,-0.954498291015625,-0.0472259521484375,-0.2764739990234375
1762361565728475100,7.77847509765625,-0.9561309814453125,-0.0449676513671875,-0.2792205810546875
1762361565738452200,7.7884521484375,-0.9571990966796875,-0.0460205078125,-0.282989501953125
1762361565748429000,7.798428955078125,-0.95916748046875,-0.0471343994140625,-0.2841796875
1762361565758406100,7.80840625,-0.95684814453125,-0.0507965087890625,-0.28729248046875
1762361565768383200,7.81838330078125,-0.9543304443359375,-0.053863525390625,-0.287506103515625
1762361565778360000,7.828360107421875,-0.956878662109375,-0.052642822265625,-0.2855987548828125
1762361565788337200,7.838337158203125,-0.9584808349609375,-0.050048828125,-0.2887420654296875
1762361565798314000,7.84831396484375,-0.9556732177734375,-0.0511932373046875,-0.291473388671875
1762361565808291000,7.858291015625,-0.9520111083984375,-0.054046630859375,-0.2899169921875
1762361565818268200,7.86826806640625,-0.944732666015625,-0.0528564453125,-0.2901763916015625
1762361565828245800,7.878245849609375,-0.9361572265625,-0.0509185791015625,-0.2978668212890625
1762361565838222600,7.88822265625,-0.9386138916015625,-0.05755615234375,-0.3043365478515625
1762361565848199700,7.89819970703125,-0.940032958984375,-0.059326171875,-0.3072509765625
1762361565858176500,7.908176513671875,-0.9402313232421875,-0.05511474609375,-0.3088531494140625
1762361565868153600,7.918153564453125,-0.9402923583984375,-0.0552978515625,-0.3132476806640625
1762361565878131700,7.928131591796875,-0.9452362060546875,-0.05181884765625,-0.318145751953125
1762361565888108500,7.938108642578125,-0.947113037109375,-0.0531158447265625,-0.3209991455078125
1762361565898085600,7.948085693359375,-0.9496917724609375,-0.0587158203125,-0.322509765625
1762361565908062500,7.9580625,-0.9520721435546875,-0.0535736083984375,-0.3221893310546875
1762361565918039600,7.96803955078125,-0.950958251953125,-0.0514984130859375,-0.317291259765625
1762361565928016400,7.978016357421875,-0.94378662109375,-0.051910400390625,-0.31268310546875
1762361565937993500,7.987993408203125,-0.9361114501953125,-0.0532989501953125,-0.31146240234375
1762361565947970600,7.997970458984375,-0.930572509765625,-0.054290771484375,-0.3153839111328125
1762361565957947400,8.007947509765625,-0.9351959228515625,-0.0506744384765625,-0.3193817138671875
1762361565967924500,8.017924560546875,-0.943634033203125,-0.0511627197265625,-0.3173675537109375
1762361565977901600,8.027901611328126,-0.94671630859375,-0.04962158203125,-0.3159332275390625
1762361565987878700,8.037878662109375,-0.9450836181640625,-0.04913330078125,-0.3202667236328125
1762361565997855500,8.04785546875,-0.9460906982421875,-0.050689697265625,-0.325836181640625
1762361566007832600,8.05783251953125,-0.9460296630859375,-0.0473785400390625,-0.32763671875
1762361566017809700,8.0678095703125,-0.9457550048828125,-0.045135498046875,-0.3285980224609375
1762361566027786500,8.077786376953124,-0.940032958984375,-0.0464630126953125,-0.326324462890625
1762361566037763600,8.087763671875,-0.9378814697265625,-0.049072265625,-0.325775146484375
1762361566047741400,8.097741455078125,-0.9391632080078125,-0.0456085205078125,-0.3289642333984375
1762361566057718500,8.107718505859374,-0.9483489990234375,-0.04180908203125,-0.3275909423828125
1762361566067695600,8.117695556640625,-0.95172119140625,-0.0442352294921875,-0.32958984375
1762361566077672400,8.12767236328125,-0.9516143798828125,-0.046173095703125,-0.331329345703125
1762361566087649500,8.1376494140625,-0.94525146484375,-0.0494537353515625,-0.33221435546875
1762361566097626400,8.14762646484375,-0.935699462890625,-0.048919677734375,-0.3353424072265625
1762361566107603500,8.157603515625,-0.9268341064453125,-0.049163818359375,-0.3325042724609375
1762361566117580300,8.167580322265625,-0.92047119140625,-0.0474090576171875,-0.3301849365234375
1762361566127557600,8.1775576171875,-0.9189910888671875,-0.046905517578125,-0.330047607421875
1762361566137534700,8.18753466796875,-0.92059326171875,-0.0500030517578125,-0.3323974609375
1762361566147511600,8.197511474609374,-0.91802978515625,-0.0457916259765625,-0.334686279296875
1762361566157488600,8.207488525390625,-0.9176483154296875,-0.0434112548828125,-0.335174560546875
1762361566167465500,8.217465576171875,-0.918701171875,-0.0455474853515625,-0.3353118896484375
1762361566177442600,8.227442626953126,-0.9232330322265625,-0.044219970703125,-0.3400115966796875
1762361566187419400,8.23741943359375,-0.9237823486328125,-0.0483551025390625,-0.3455963134765625
1762361566197396500,8.247396484375,-0.9302825927734375,-0.04937744140625,-0.34954833984375
1762361566207373600,8.25737353515625,-0.9313201904296875,-0.0518951416015625,-0.3545989990234375
1762361566217351400,8.267351318359376,-0.9268341064453125,-0.052978515625,-0.3571624755859375
1762361566227328500,8.27732861328125,-0.923675537109375,-0.0487518310546875,-0.3517608642578125
1762361566237305600,8.2873056640625,-0.9173736572265625,-0.04522705078125,-0.347198486328125
1762361566247282400,8.297282470703125,-0.912872314453125,-0.0449676513671875,-0.353790283203125
1762361566257259500,8.307259521484376,-0.9098358154296875,-0.045562744140625,-0.364410400390625
1762361566267236400,8.317236328125,-0.9131317138671875,-0.0468597412109375,-0.3644256591796875
1762361566277213700,8.327213623046875,-0.920745849609375,-0.0510406494140625,-0.3600616455078125
1762361566287190500,8.3371904296875,-0.9257049560546875,-0.0492401123046875,-0.3626251220703125
1762361566297167600,8.347167724609376,-0.9254302978515625,-0.04974365234375,-0.3676605224609375
1762361566307144700,8.357144775390625,-0.9213714599609375,-0.0513153076171875,-0.370147705078125
1762361566317121500,8.36712158203125,-0.9145660400390625,-0.04638671875,-0.3700714111328125
1762361566327098600,8.3770986328125,-0.913116455078125,-0.043243408203125,-0.369781494140625
1762361566337075500,8.387075439453126,-0.9239654541015625,-0.0439300537109375,-0.37188720703125
1762361566347052500,8.397052490234374,-0.9301910400390625,-0.0450286865234375,-0.374725341796875
1762361566357029400,8.407029296875,-0.9279327392578125,-0.0437469482421875,-0.375885009765625
1762361566367006500,8.41700634765625,-0.9284515380859375,-0.047271728515625,-0.380126953125
1762361566376983600,8.426983642578126,-0.9201202392578125,-0.047088623046875,-0.3833465576171875
1762361566386960400,8.43696044921875,-0.91302490234375,-0.04681396484375,-0.3814239501953125
1762361566396938500,8.4469384765625,-0.910614013671875,-0.0460052490234375,-0.3809967041015625
1762361566406915300,8.456915283203125,-0.9134521484375,-0.0458831787109375,-0.3844757080078125
1762361566416892400,8.466892333984376,-0.9133453369140625,-0.0491790771484375,-0.3903045654296875
1762361566426869500,8.476869384765624,-0.91864013671875,-0.0507354736328125,-0.390716552734375
1762361566436846600,8.4868466796875,-0.9257049560546875,-0.048187255859375,-0.390869140625
1762361566446823700,8.49682373046875,-0.92523193359375,-0.0484161376953125,-0.3957977294921875
1762361566456800500,8.506800537109376,-0.919708251953125,-0.049774169921875,-0.397064208984375
1762361566466777600,8.516777587890624,-0.9116058349609375,-0.0520782470703125,-0.4029541015625
1762361566476754400,8.52675439453125,-0.903228759765625,-0.0561370849609375,-0.4113616943359375
1762361566486731500,8.5367314453125,-0.905029296875,-0.0573577880859375,-0.4163970947265625
1762361566496708600,8.54670849609375,-0.90484619140625,-0.056396484375,-0.4199981689453125
1762361566506685400,8.556685546875,-0.904144287109375,-0.0537872314453125,-0.4175567626953125
1762361566516662500,8.56666259765625,-0.905120849609375,-0.0459442138671875,-0.417266845703125
1762361566526639400,8.576639404296875,-0.9063720703125,-0.0446014404296875,-0.4183197021484375
1762361566536616400,8.586616455078126,-0.913421630859375,-0.0536041259765625,-0.4144287109375
1762361566546593500,8.596593505859374,-0.9232025146484375,-0.05914306640625,-0.4183807373046875
1762361566556570600,8.606570556640625,-0.9310150146484375,-0.0602569580078125,-0.4215087890625
1762361566566547700,8.616547607421875,-0.9283294677734375,-0.0594940185546875,-0.4203338623046875
1762361566576525600,8.626525634765626,-0.923919677734375,-0.0556793212890625,-0.4188079833984375
1762361566586502700,8.636502685546875,-0.91644287109375,-0.0552978515625,-0.41204833984375
1762361566596479500,8.6464794921875,-0.906341552734375,-0.054473876953125,-0.414794921875
1762361566606456600,8.65645654296875,-0.8995361328125,-0.0544281005859375,-0.4213104248046875
1762361566616433700,8.66643359375,-0.902252197265625,-0.059417724609375,-0.4243316650390625
1762361566626410500,8.676410400390624,-0.9098358154296875,-0.0599517822265625,-0.4247283935546875
1762361566636387600,8.6863876953125,-0.911285400390625,-0.0600128173828125,-0.4288482666015625
1762361566646364400,8.696364501953125,-0.903228759765625,-0.058258056640625,-0.4286346435546875
1762361566656341500,8.706341552734376,-0.891937255859375,-0.053009033203125,-0.4287261962890625
1762361566666318300,8.716318359375,-0.8839263916015625,-0.0472259521484375,-0.4316253662109375
1762361566676295400,8.72629541015625,-0.8863677978515625,-0.0491790771484375,-0.4305419921875
1762361566686272500,8.7362724609375,-0.892303466796875,-0.0572052001953125,-0.43310546875
1762361566696249600,8.74624951171875,-0.900299072265625,-0.05438232421875,-0.435943603515625
1762361566706226700,8.756226806640624,-0.898040771484375,-0.0532989501953125,-0.4380645751953125
1762361566716203500,8.76620361328125,-0.8922271728515625,-0.0543060302734375,-0.4364166259765625
1762361566726180600,8.7761806640625,-0.8913726806640625,-0.053619384765625,-0.4344329833984375
1762361566736157400,8.786157470703126,-0.8861846923828125,-0.0535125732421875,-0.433319091796875
1762361566746134500,8.796134521484374,-0.8827667236328125,-0.0514373779296875,-0.4346771240234375
1762361566756111600,8.806111572265625,-0.878387451171875,-0.0521087646484375,-0.43341064453125
1762361566766089500,8.81608935546875,-0.8770294189453125,-0.052734375,-0.4315338134765625
1762361566776066600,8.826066650390626,-0.8754425048828125,-0.05535888671875,-0.4326934814453125
1762361566786043600,8.836043701171874,-0.878509521484375,-0.0563507080078125,-0.4356231689453125
1762361566796020500,8.8460205078125,-0.8848876953125,-0.0571746826171875,-0.4396820068359375
1762361566805997600,8.85599755859375,-0.890655517578125,-0.0553741455078125,-0.441864013671875
1762361566815974400,8.865974365234376,-0.885009765625,-0.055206298828125,-0.446533203125
1762361566825951700,8.87595166015625,-0.88104248046875,-0.06048583984375,-0.446807861328125
1762361566835928600,8.885928466796875,-0.8840484619140625,-0.059112548828125,-0.4477386474609375
1762361566845905700,8.89590576171875,-0.883056640625,-0.0545196533203125,-0.45166015625
1762361566855882800,8.9058828125,-0.8810882568359375,-0.05377197265625,-0.4506988525390625
1762361566865859800,8.91585986328125,-0.8742828369140625,-0.0549163818359375,-0.4466400146484375
1762361566875836700,8.925836669921875,-0.8655853271484375,-0.0556793212890625,-0.446380615234375
1762361566885813800,8.935813720703125,-0.8622589111328125,-0.0554962158203125,-0.4462127685546875
1762361566895790800,8.945790771484376,-0.8676910400390625,-0.056640625,-0.4458160400390625
1762361566905767700,8.955767578125,-0.8745880126953125,-0.053466796875,-0.4454498291015625
1762361566915744800,8.965744873046875,-0.8784332275390625,-0.0503997802734375,-0.4467926025390625
1762361566925721600,8.9757216796875,-0.88140869140625,-0.0535125732421875,-0.447662353515625
1762361566935698700,8.98569873046875,-0.8811798095703125,-0.05255126953125,-0.4483642578125
1762361566945675500,8.995675537109374,-0.88140869140625,-0.0495758056640625,-0.4524688720703125
1762361566955653600,9.005653564453125,-0.88116455078125,-0.04736328125,-0.4482879638671875
1762361566965630700,9.015630615234375,-0.881134033203125,-0.0465545654296875,-0.4488525390625
1762361566975607600,9.025607666015626,-0.88568115234375,-0.0497589111328125,-0.4544219970703125
1762361566985584600,9.035584716796874,-0.8888092041015625,-0.0539703369140625,-0.46136474609375
1762361566995561500,9.0455615234375,-0.8863525390625,-0.0520477294921875,-0.467803955078125
1762361567005538800,9.055538818359375,-0.8851776123046875,-0.0529632568359375,-0.46820068359375
1762361567015516000,9.065515869140626,-0.8807373046875,-0.0505523681640625,-0.4675445556640625
1762361567025492700,9.07549267578125,-0.877227783203125,-0.0468902587890625,-0.4658203125
1762361567035469800,9.0854697265625,-0.8757171630859375,-0.0498046875,-0.463104248046875
1762361567045446700,9.09544677734375,-0.8740234375,-0.0515289306640625,-0.4648895263671875
1762361567055423700,9.105423828125,-0.87567138671875,-0.0518035888671875,-0.46624755859375
1762361567065400600,9.115400634765624,-0.8728485107421875,-0.0541534423828125,-0.4700775146484375
1762361567075377700,9.125377685546875,-0.86920166015625,-0.057373046875,-0.4735565185546875
1762361567085354800,9.135354736328125,-0.861572265625,-0.0577545166015625,-0.479583740234375
1762361567095331600,9.14533154296875,-0.855926513671875,-0.0563507080078125,-0.484832763671875
1762361567105308700,9.15530859375,-0.8572540283203125,-0.057952880859375,-0.4882049560546875
1762361567115285800,9.16528564453125,-0.8579559326171875,-0.0533447265625,-0.486785888671875
1762361567125262800,9.175262939453125,-0.8573150634765625,-0.0506744384765625,-0.483917236328125
1762361567135239700,9.18523974609375,-0.8645172119140625,-0.050048828125,-0.4900665283203125
1762361567145216800,9.195216796875,-0.8719024658203125,-0.0544586181640625,-0.4888458251953125
1762361567155193900,9.20519384765625,-0.8741302490234375,-0.049468994140625,-0.4937286376953125
1762361567165171700,9.215171630859375,-0.86968994140625,-0.054931640625,-0.5023040771484375
1762361567175148800,9.225148681640626,-0.8689727783203125,-0.052276611328125,-0.5037384033203125
1762361567185125600,9.235125732421874,-0.868499755859375,-0.0467987060546875,-0.5029296875
1762361567195102700,9.245102783203125,-0.8682098388671875,-0.05096435546875,-0.5015716552734375
1762361567205079800,9.255079833984375,-0.870635986328125,-0.0506744384765625,-0.5014801025390625
1762361567215056600,9.265056640625,-0.8713226318359375,-0.05169677734375,-0.505157470703125
1762361567225033700,9.27503369140625,-0.8675384521484375,-0.049468994140625,-0.504974365234375
1762361567235010600,9.285010498046875,-0.8607940673828125,-0.050323486328125,-0.505706787109375
1762361567244987600,9.294987548828125,-0.858489990234375,-0.0515594482421875,-0.5038299560546875
1762361567254964500,9.304964599609375,-0.8564605712890625,-0.0492706298828125,-0.501129150390625
1762361567264941600,9.314941650390624,-0.8535003662109375,-0.0467681884765625,-0.5027618408203125
1762361567274919000,9.3249189453125,-0.8465728759765625,-0.0445709228515625,-0.5047607421875
1762361567284895700,9.334895751953125,-0.8387298583984375,-0.048370361328125,-0.50262451171875
1762361567294872800,9.344872802734375,-0.8434295654296875,-0.044952392578125,-0.50140380859375
1762361567304849700,9.354849609375,-0.8487701416015625,-0.041351318359375,-0.504425048828125
1762361567314826800,9.36482666015625,-0.8509063720703125,-0.0456695556640625,-0.50927734375
1762361567324803600,9.374803466796875,-0.8523101806640625,-0.05126953125,-0.51715087890625
1762361567334780700,9.38478076171875,-0.8506011962890625,-0.0502166748046875,-0.5167694091796875
1762361567344757800,9.3947578125,-0.8575439453125,-0.0535125732421875,-0.5197601318359375
1762361567354734600,9.404734619140624,-0.86016845703125,-0.0561981201171875,-0.5359039306640625
1762361567364711700,9.414711669921875,-0.853912353515625,-0.05743408203125,-0.538360595703125
1762361567374689800,9.424689697265626,-0.848236083984375,-0.0562591552734375,-0.535003662109375
1762361567384666600,9.43466650390625,-0.8422393798828125,-0.05401611328125,-0.5341339111328125
1762361567394643700,9.444643798828125,-0.836456298828125,-0.0468902587890625,-0.529052734375
1762361567404620500,9.45462060546875,-0.8356475830078125,-0.049560546875,-0.5299072265625
1762361567414597600,9.46459765625,-0.8407440185546875,-0.051544189453125,-0.5337371826171875
1762361567424574700,9.47457470703125,-0.8464813232421875,-0.0513916015625,-0.53460693359375
1762361567434551800,9.4845517578125,-0.8550872802734375,-0.05059814453125,-0.5375823974609375
1762361567444528600,9.494528564453125,-0.8547210693359375,-0.049407958984375,-0.540618896484375
1762361567454505700,9.504505615234375,-0.849395751953125,-0.04803466796875,-0.539093017578125
1762361567464482800,9.51448291015625,-0.843658447265625,-0.0452117919921875,-0.5390167236328125
1762361567474459600,9.524459716796875,-0.8414459228515625,-0.0450592041015625,-0.535247802734375
1762361567484436700,9.534436767578125,-0.8408203125,-0.04315185546875,-0.533111572265625
1762361567494413600,9.54441357421875,-0.8390655517578125,-0.043060302734375,-0.5345001220703125
1762361567504390700,9.554390625,-0.8354949951171875,-0.04718017578125,-0.537200927734375
1762361567514367500,9.564367431640624,-0.8311920166015625,-0.0509185791015625,-0.5444488525390625
1762361567524344600,9.574344482421875,-0.8247528076171875,-0.0478057861328125,-0.5462493896484375
1762361567534321700,9.58432177734375,-0.8223724365234375,-0.0451507568359375,-0.5430145263671875
1762361567544298800,9.594298828125,-0.8244476318359375,-0.045989990234375,-0.540771484375
1762361567554275800,9.60427587890625,-0.83026123046875,-0.0420379638671875,-0.5399017333984375
1762361567564252700,9.614252685546875,-0.8373870849609375,-0.0414276123046875,-0.54168701171875
1762361567574229800,9.624229736328125,-0.8370208740234375,-0.042022705078125,-0.5458221435546875
1762361567584208000,9.634207763671874,-0.8353729248046875,-0.04864501953125,-0.5555267333984375
1762361567594184700,9.644184814453125,-0.8353271484375,-0.053436279296875,-0.5599517822265625
1762361567604161800,9.654161865234375,-0.8391571044921875,-0.04864501953125,-0.5582122802734375
1762361567614138600,9.664138671875,-0.835968017578125,-0.0447845458984375,-0.55426025390625
1762361567624115700,9.67411572265625,-0.83050537109375,-0.043731689453125,-0.5561065673828125
1762361567634092800,9.6840927734375,-0.82818603515625,-0.0486297607421875,-0.5604400634765625
1762361567644069600,9.694069580078125,-0.831268310546875,-0.0520172119140625,-0.5655975341796875
1762361567654046700,9.704046630859375,-0.8373870849609375,-0.048553466796875,-0.56292724609375
1762361567664023600,9.7140234375,-0.839202880859375,-0.0500946044921875,-0.5579071044921875
1762361567674000600,9.724000732421874,-0.8352813720703125,-0.0496826171875,-0.5626068115234375
1762361567683977700,9.733977783203125,-0.828399658203125,-0.047088623046875,-0.5652008056640625
1762361567693954800,9.743954833984375,-0.8217010498046875,-0.0462188720703125,-0.56103515625
1762361567703932000,9.753931884765626,-0.8217620849609375,-0.048187255859375,-0.5596771240234375
1762361567713908700,9.76390869140625,-0.8241424560546875,-0.0513916015625,-0.5552825927734375
1762361567723885800,9.7738857421875,-0.831207275390625,-0.0543670654296875,-0.554290771484375
1762361567733862700,9.783862548828125,-0.838836669921875,-0.0509796142578125,-0.5525360107421875
1762361567743839700,9.79383984375,-0.847381591796875,-0.05072021484375,-0.554931640625
1762361567753816600,9.803816650390624,-0.8517303466796875,-0.05389404296875,-0.55975341796875
1762361567763793700,9.813793701171875,-0.854949951171875,-0.0546417236328125,-0.5663299560546875
1762361567773770800,9.823770751953125,-0.859222412109375,-0.0567474365234375,-0.5674896240234375
1762361567783747600,9.83374755859375,-0.8656158447265625,-0.061187744140625,-0.5647430419921875
1762361567793724700,9.843724609375,-0.8636474609375,-0.0554351806640625,-0.560791015625
1762361567803701800,9.85370166015625,-0.851104736328125,-0.056854248046875,-0.5607757568359375
1762361567813679600,9.8636796875,-0.8397674560546875,-0.057861328125,-0.56011962890625
1762361567823656700,9.87365673828125,-0.83648681640625,-0.05743408203125,-0.55792236328125
1762361567833633000,9.883633056640624,-0.8351287841796875,-0.058685302734375,-0.5523529052734375
1762361567843610000,9.893610107421875,-0.83721923828125,-0.0575714111328125,-0.546417236328125
1762361567853587000,9.9035869140625,-0.8380889892578125,-0.054901123046875,-0.542999267578125
1762361567863564000,9.91356396484375,-0.8379058837890625,-0.0562286376953125,-0.5415496826171875
1762361567873540900,9.923540771484374,-0.8406524658203125,-0.061187744140625,-0.539520263671875
1762361567883518000,9.93351806640625,-0.84478759765625,-0.0590972900390625,-0.5363616943359375
1762361567893494800,9.943494873046875,-0.8494873046875,-0.0615692138671875,-0.5279388427734375
1762361567903471900,9.953471923828126,-0.85247802734375,-0.06243896484375,-0.524261474609375
1762361567913449000,9.963448974609374,-0.8458251953125,-0.0612640380859375,-0.5256500244140625
1762361567923425800,9.97342578125,-0.8354949951171875,-0.0592498779296875,-0.5223388671875
1762361567933403100,9.983403076171875,-0.8328399658203125,-0.054473876953125,-0.519012451171875
1762361567943380000,9.9933798828125,-0.8355712890625,-0.048858642578125,-0.5174407958984375
1762361567953357000,10.003357177734374,-0.8443756103515625,-0.051239013671875,-0.516326904296875
1762361567963334000,10.013333984375,-0.85357666015625,-0.0526275634765625,-0.5164031982421875
1762361567973311000,10.02331103515625,-0.863311767578125,-0.0483551025390625,-0.5244598388671875
1762361567983288000,10.0332880859375,-0.8753662109375,-0.0524444580078125,-0.53564453125
1762361567993265000,10.043264892578126,-0.88702392578125,-0.05364990234375,-0.536773681640625
1762361568003242000,10.053241943359374,-0.8829498291015625,-0.0503997802734375,-0.5340118408203125
1762361568013218800,10.06321875,-0.8660888671875,-0.05853271484375,-0.5328216552734375
1762361568023196000,10.07319580078125,-0.8572540283203125,-0.064361572265625,-0.52978515625
1762361568033172700,10.0831728515625,-0.85748291015625,-0.0640716552734375,-0.52276611328125
1762361568043149800,10.09314990234375,-0.85357666015625,-0.064483642578125,-0.5191802978515625
1762361568053128000,10.1031279296875,-0.848968505859375,-0.0644378662109375,-0.514404296875
1762361568063104800,10.113104736328125,-0.8505706787109375,-0.053985595703125,-0.50372314453125
1762361568073081900,10.123081787109374,-0.842132568359375,-0.055633544921875,-0.489288330078125
1762361568083059000,10.133058837890625,-0.8367156982421875,-0.0649566650390625,-0.4852142333984375
1762361568093036000,10.1430361328125,-0.83538818359375,-0.0693206787109375,-0.483184814453125
1762361568103013000,10.15301318359375,-0.837615966796875,-0.0701446533203125,-0.480316162109375
1762361568112990000,10.162989990234376,-0.8441009521484375,-0.0742340087890625,-0.4756011962890625
1762361568122967000,10.172967041015625,-0.852691650390625,-0.077880859375,-0.469329833984375
1762361568132944000,10.18294384765625,-0.86297607421875,-0.0797271728515625,-0.46429443359375
1762361568142921000,10.1929208984375,-0.870025634765625,-0.0802001953125,-0.4612579345703125
1762361568152897800,10.202897705078126,-0.8770904541015625,-0.0734100341796875,-0.4537811279296875
1762361568162875000,10.212875,-0.889007568359375,-0.0601654052734375,-0.44378662109375
1762361568172852000,10.22285205078125,-0.8907012939453125,-0.0529632568359375,-0.4352874755859375
1762361568182828800,10.232828857421875,-0.885894775390625,-0.0552520751953125,-0.4338531494140625
1762361568192806000,10.242805908203126,-0.889007568359375,-0.0672149658203125,-0.4444427490234375
1762361568202783000,10.252782958984374,-0.9078826904296875,-0.0780792236328125,-0.4550323486328125
1762361568212760000,10.262760009765625,-0.9226226806640625,-0.0826416015625,-0.4586181640625
1762361568222737000,10.27273681640625,-0.923309326171875,-0.077423095703125,-0.4570159912109375
1762361568232714000,10.2827138671875,-0.9118499755859375,-0.074188232421875,-0.4430694580078125
1762361568242691000,10.292691162109374,-0.9055633544921875,-0.068511962890625,-0.4289703369140625
1762361568252668000,10.30266796875,-0.8948974609375,-0.0676422119140625,-0.424468994140625
1762361568262645000,10.31264501953125,-0.8871612548828125,-0.07794189453125,-0.4234161376953125
1762361568272621800,10.322621826171876,-0.8877410888671875,-0.0790557861328125,-0.4201202392578125
1762361568282599000,10.332598876953124,-0.889556884765625,-0.066741943359375,-0.4224853515625
1762361568292575700,10.34257568359375,-0.886810302734375,-0.06488037109375,-0.42327880859375
1762361568302552800,10.352552734375,-0.8798370361328125,-0.0713043212890625,-0.4154052734375
1762361568312531000,10.362531005859376,-0.8747711181640625,-0.0787811279296875,-0.413726806640625
1762361568322507800,10.3725078125,-0.877044677734375,-0.0802459716796875,-0.412994384765625
1762361568332484900,10.38248486328125,-0.884735107421875,-0.07733154296875,-0.410003662109375
1762361568342462000,10.3924619140625,-0.8908843994140625,-0.07733154296875,-0.4039764404296875
1762361568352439000,10.40243896484375,-0.8971099853515625,-0.0789337158203125,-0.398162841796875
1762361568362416000,10.412416015625,-0.9034881591796875,-0.078887939453125,-0.3927154541015625
1762361568372393000,10.42239306640625,-0.90435791015625,-0.0716400146484375,-0.390350341796875
1762361568382370000,10.4323701171875,-0.905517578125,-0.069671630859375,-0.3882598876953125
1762361568392347000,10.442346923828126,-0.910919189453125,-0.0716552734375,-0.389892578125
1762361568402324000,10.452323974609374,-0.911163330078125,-0.0690460205078125,-0.3894195556640625
1762361568412301000,10.462301025390625,-0.906890869140625,-0.0661773681640625,-0.3828887939453125
1762361568422278000,10.47227783203125,-0.9003143310546875,-0.0751190185546875,-0.3792266845703125
1762361568432255000,10.4822548828125,-0.8962554931640625,-0.0851287841796875,-0.3798065185546875
1762361568442231800,10.492231689453124,-0.9003753662109375,-0.0861358642578125,-0.379974365234375
1762361568452209000,10.502208984375,-0.9112396240234375,-0.0811767578125,-0.37481689453125
1762361568462186000,10.51218603515625,-0.925567626953125,-0.081390380859375,-0.366485595703125
1762361568472163000,10.5221630859375,-0.9346466064453125,-0.076416015625,-0.3557891845703125
1762361568482140200,10.53214013671875,-0.9400787353515625,-0.072113037109375,-0.3493804931640625
1762361568492117000,10.542116943359375,-0.939422607421875,-0.069091796875,-0.34674072265625
1762361568502094000,10.552093994140625,-0.9339599609375,-0.066925048828125,-0.3391876220703125
1762361568512071000,10.56207080078125,-0.9285888671875,-0.0628814697265625,-0.3307037353515625
1762361568522048000,10.572048095703124,-0.927886962890625,-0.0621185302734375,-0.3252105712890625
1762361568532024800,10.58202490234375,-0.9332122802734375,-0.05718994140625,-0.3275604248046875
1762361568542002000,10.592001953125,-0.93499755859375,-0.0550537109375,-0.332122802734375
1762361568551979000,10.60197900390625,-0.9342041015625,-0.05950927734375,-0.325592041015625
1762361568561955800,10.611955810546876,-0.9387969970703125,-0.0676116943359375,-0.32611083984375
1762361568571933000,10.621932861328125,-0.956939697265625,-0.0727386474609375,-0.3365936279296875
1762361568581910800,10.631910888671875,-0.978118896484375,-0.0726776123046875,-0.3383636474609375
1762361568591888000,10.641887939453126,-0.9862518310546875,-0.06842041015625,-0.3282318115234375
1762361568601865000,10.651864990234374,-0.983367919921875,-0.0638275146484375,-0.313323974609375
1762361568611841800,10.661841796875,-0.9708251953125,-0.0640411376953125,-0.301177978515625
1762361568621819100,10.671819091796875,-0.95501708984375,-0.06500244140625,-0.29461669921875
1762361568631796000,10.6817958984375,-0.9424285888671875,-0.0574951171875,-0.287384033203125
1762361568641773000,10.69177294921875,-0.933685302734375,-0.0529327392578125,-0.2844696044921875
1762361568651750000,10.70175,-0.92437744140625,-0.057220458984375,-0.2792205810546875
1762361568661727000,10.71172705078125,-0.919677734375,-0.0631866455078125,-0.2753448486328125
1762361568671704000,10.7217041015625,-0.9224853515625,-0.06695556640625,-0.2719268798828125
1762361568681681000,10.731680908203124,-0.934539794921875,-0.0648040771484375,-0.2677001953125
1762361568691658000,10.741657958984375,-0.9466705322265625,-0.0638275146484375,-0.2644805908203125
1762361568701634800,10.751634765625,-0.954193115234375,-0.06280517578125,-0.2589111328125
1762361568711612000,10.76161181640625,-0.9580078125,-0.065948486328125,-0.257110595703125
1762361568721588700,10.771588623046876,-0.9586944580078125,-0.06488037109375,-0.255706787109375
1762361568731566000,10.781566162109375,-0.95880126953125,-0.0586395263671875,-0.24969482421875
1762361568741543200,10.791543212890625,-0.9580535888671875,-0.0515899658203125,-0.2480316162109375
1762361568751520000,10.80152001953125,-0.9556427001953125,-0.050262451171875,-0.24395751953125
1762361568761497000,10.8114970703125,-0.9505462646484375,-0.05419921875,-0.2406463623046875
1762361568771474000,10.821473876953124,-0.9438934326171875,-0.0529632568359375,-0.2370452880859375
1762361568781451000,10.831450927734375,-0.9387664794921875,-0.0558624267578125,-0.23291015625
1762361568791427800,10.841427734375,-0.940032958984375,-0.0593719482421875,-0.2288818359375
1762361568801405000,10.851405029296876,-0.9476318359375,-0.0594635009765625,-0.2255706787109375
1762361568811382000,10.861382080078124,-0.9575653076171875,-0.0618133544921875,-0.22808837890625
1762361568821358800,10.87135888671875,-0.9691314697265625,-0.064300537109375,-0.2297210693359375
1762361568831336400,10.88133642578125,-0.9781646728515625,-0.0620574951171875,-0.228668212890625
1762361568841313300,10.891313232421876,-0.9854888916015625,-0.0561370849609375,-0.227874755859375
1762361568851290400,10.901290283203124,-0.991790771484375,-0.054351806640625,-0.22247314453125
1762361568861268500,10.9112685546875,-0.991424560546875,-0.0526275634765625,-0.213714599609375
1762361568871245300,10.921245361328126,-0.9918975830078125,-0.0516815185546875,-0.212249755859375
1762361568881222400,10.931222412109374,-0.995361328125,-0.05462646484375,-0.205718994140625
1762361568891199200,10.94119921875,-0.993743896484375,-0.0610198974609375,-0.2006988525390625
1762361568901176600,10.951176513671875,-0.9878082275390625,-0.0674285888671875,-0.1935577392578125
1762361568911153700,10.961153564453125,-0.985626220703125,-0.0669097900390625,-0.1841888427734375
1762361568921130500,10.971130615234374,-0.9845733642578125,-0.0633697509765625,-0.1811370849609375
1762361568931107600,10.981107666015625,-0.9797515869140625,-0.0622406005859375,-0.178131103515625
1762361568941084400,10.99108447265625,-0.972259521484375,-0.0639801025390625,-0.17132568359375
1762361568951061500,11.0010615234375,-0.9627227783203125,-0.064727783203125,-0.1650238037109375
1762361568961038300,11.011038330078126,-0.95550537109375,-0.06500244140625,-0.1627044677734375
1762361568971015400,11.021015380859374,-0.9518280029296875,-0.0673370361328125,-0.163818359375
1762361568980992500,11.030992431640625,-0.9518890380859375,-0.069915771484375,-0.162078857421875
1762361568990969300,11.04096923828125,-0.9516448974609375,-0.069061279296875,-0.1566162109375
1762361569000946400,11.050946533203126,-0.9498748779296875,-0.0720062255859375,-0.1520233154296875
1762361569010923300,11.06092333984375,-0.9572601318359375,-0.0738677978515625,-0.1477813720703125
1762361569020900600,11.070900634765625,-0.975433349609375,-0.07049560546875,-0.1473846435546875
1762361569030877400,11.08087744140625,-0.9934844970703125,-0.0686798095703125,-0.145843505859375
1762361569040854500,11.0908544921875,-0.9965667724609375,-0.0693359375,-0.1430511474609375
1762361569050831600,11.10083154296875,-0.991943359375,-0.0667572021484375,-0.14111328125
1762361569060808400,11.110808349609375,-0.98626708984375,-0.0669708251953125,-0.134307861328125
1762361569070785500,11.12078564453125,-0.9878387451171875,-0.064544677734375,-0.1264190673828125
1762361569080762400,11.130762451171876,-0.9963226318359375,-0.0661773681640625,-0.1219024658203125
1762361569090739500,11.140739501953124,-0.99908447265625,-0.074920654296875,-0.11480712890625
1762361569100716300,11.15071630859375,-0.9971160888671875,-0.082061767578125,-0.114227294921875
1762361569110693400,11.160693359375,-0.984588623046875,-0.076324462890625,-0.1251220703125
1762361569120670500,11.17067041015625,-0.9769287109375,-0.0689544677734375,-0.113494873046875
1762361569130647300,11.180647216796874,-0.966705322265625,-0.07562255859375,-0.0978240966796875
1762361569140624600,11.190624755859375,-0.967254638671875,-0.0759124755859375,-0.09515380859375
1762361569150601500,11.2006015625,-0.9732666015625,-0.080780029296875,-0.1007843017578125
1762361569160578600,11.21057861328125,-0.977325439453125,-0.0849456787109375,-0.1001434326171875
1762361569170555400,11.220555419921874,-0.9781951904296875,-0.082733154296875,-0.097442626953125
1762361569180533500,11.230533447265625,-0.9835052490234375,-0.0763092041015625,-0.092437744140625
1762361569190510600,11.240510498046875,-0.987884521484375,-0.07366943359375,-0.0892333984375
1762361569200487400,11.2504873046875,-0.9890899658203125,-0.07696533203125,-0.0837554931640625
1762361569210464500,11.260464599609374,-0.9859771728515625,-0.0767669677734375,-0.079071044921875
1762361569220441300,11.27044140625,-0.978363037109375,-0.070068359375,-0.0787200927734375
1762361569230418400,11.28041845703125,-0.9764862060546875,-0.0650634765625,-0.0758209228515625
1762361569240395500,11.2903955078125,-0.9797210693359375,-0.0639801025390625,-0.0769195556640625
1762361569250372400,11.300372314453124,-0.9898223876953125,-0.06756591796875,-0.07861328125
1762361569260349400,11.310349365234375,-1.0035858154296875,-0.0693817138671875,-0.079010009765625
1762361569270326300,11.320326171875,-1.0034942626953125,-0.06787109375,-0.07525634765625
1762361569280303400,11.330303466796876,-0.9872894287109375,-0.069183349609375,-0.067840576171875
1762361569290280400,11.340280517578124,-0.973480224609375,-0.0729217529296875,-0.0657806396484375
1762361569300257500,11.350257568359375,-0.9688568115234375,-0.07427978515625,-0.0695037841796875
1762361569310234600,11.360234619140625,-0.9664154052734375,-0.0743865966796875,-0.06915283203125
1762361569320211500,11.37021142578125,-0.969024658203125,-0.0740509033203125,-0.0665435791015625
1762361569330188500,11.3801884765625,-0.9693450927734375,-0.075958251953125,-0.067047119140625
1762361569340165400,11.390165283203125,-0.973236083984375,-0.0795440673828125,-0.0654754638671875
1762361569350142500,11.400142578125,-0.9853515625,-0.0783233642578125,-0.0643157958984375
1762361569360119300,11.410119384765625,-0.9993743896484375,-0.0772552490234375,-0.0660400390625
1762361569370096400,11.420096435546874,-1.0061492919921875,-0.0767059326171875,-0.0692138671875
1762361569380073500,11.430073486328125,-1.0072021484375,-0.0766754150390625,-0.0738067626953125
1762361569390050300,11.44005029296875,-1.0089263916015625,-0.0805511474609375,-0.080352783203125
1762361569400027400,11.45002734375,-1.011474609375,-0.0816497802734375,-0.07977294921875
1762361569410004500,11.46000439453125,-1.0106964111328125,-0.079376220703125,-0.07464599609375
1762361569419981600,11.469981689453125,-1.0019378662109375,-0.0835113525390625,-0.0663604736328125
1762361569429958400,11.47995849609375,-1.0001373291015625,-0.0854644775390625,-0.0612640380859375
1762361569439935500,11.489935546875,-1.00390625,-0.0824127197265625,-0.0605926513671875
1762361569449912600,11.49991259765625,-1.00567626953125,-0.083251953125,-0.0572357177734375
1762361569459889400,11.509889404296874,-1.0062713623046875,-0.0837860107421875,-0.0488433837890625
1762361569469866500,11.519866455078125,-0.9987030029296875,-0.0817718505859375,-0.0471954345703125
1762361569479843300,11.52984326171875,-0.9834442138671875,-0.0806732177734375,-0.0499420166015625
1762361569489820400,11.5398203125,-0.96905517578125,-0.0837249755859375,-0.052093505859375
1762361569499797200,11.54979736328125,-0.9695281982421875,-0.0836944580078125,-0.0473175048828125
1762361569509775400,11.559775390625,-0.9832000732421875,-0.0831451416015625,-0.040435791015625
1762361569519752400,11.56975244140625,-0.997161865234375,-0.077178955078125,-0.0342864990234375
1762361569529729300,11.579729248046876,-0.999908447265625,-0.07550048828125,-0.03106689453125
1762361569539706400,11.589706298828125,-0.995452880859375,-0.0749053955078125,-0.0309906005859375
1762361569549683500,11.599683349609375,-0.9886474609375,-0.0755615234375,-0.036712646484375
1762361569559660500,11.60966064453125,-0.9825592041015625,-0.080047607421875,-0.0340576171875
1762361569569637600,11.6196376953125,-0.9808197021484375,-0.07623291015625,-0.0271759033203125
1762361569579614500,11.629614501953125,-0.9726104736328125,-0.0749359130859375,-0.023529052734375
1762361569589591600,11.639591552734375,-0.9686126708984375,-0.074798583984375,-0.020050048828125
1762361569599568400,11.649568359375,-0.97015380859375,-0.0788421630859375,-0.01934814453125
1762361569609545500,11.65954541015625,-0.9748992919921875,-0.0806884765625,-0.01739501953125
1762361569619522300,11.669522216796874,-0.9745330810546875,-0.083526611328125,-0.0229034423828125
1762361569629499400,11.67949951171875,-0.974884033203125,-0.082366943359375,-0.02093505859375
1762361569639476500,11.6894765625,-0.9781494140625,-0.0776519775390625,-0.0121612548828125
1762361569649453300,11.699453369140626,-0.984375,-0.0749664306640625,-0.0064544677734375
1762361569659430400,11.709430419921874,-0.98187255859375,-0.0761871337890625,-0.00146484375
1762361569669407500,11.719407470703125,-0.984039306640625,-0.076995849609375,-0.005401611328125
1762361569679384600,11.729384521484375,-0.989501953125,-0.0757904052734375,-0.009307861328125
1762361569689361400,11.739361328125,-0.993255615234375,-0.0720672607421875,-0.008941650390625
1762361569699338500,11.74933837890625,-0.9870452880859375,-0.0734100341796875,-0.00482177734375
1762361569709315600,11.759315673828125,-0.9751739501953125,-0.0751800537109375,0.0011749267578125
1762361569719292400,11.76929248046875,-0.9615020751953125,-0.079437255859375,0.0090179443359375
1762361569729269500,11.77926953125,-0.9550323486328125,-0.081512451171875,0.0109405517578125
1762361569739246300,11.789246337890624,-0.961456298828125,-0.0814361572265625,0.0135040283203125
1762361569749223400,11.799223388671875,-0.9747314453125,-0.0808258056640625,0.01690673828125
1762361569759200300,11.8092001953125,-0.996856689453125,-0.0783233642578125,0.0217437744140625
1762361569769177300,11.81917724609375,-1.015716552734375,-0.0756378173828125,0.03155517578125
1762361569779154400,11.829154541015624,-1.03082275390625,-0.0731658935546875,0.03533935546875
1762361569789131500,11.839131591796875,-1.034637451171875,-0.072906494140625,0.03765869140625
1762361569799108600,11.849108642578125,-1.0265655517578125,-0.0712127685546875,0.039398193359375
1762361569809085400,11.85908544921875,-1.0117034912109375,-0.0713653564453125,0.041534423828125
1762361569819062500,11.8690625,-0.999847412109375,-0.074493408203125,0.0495452880859375
1762361569829039000,11.8790390625,-0.9863433837890625,-0.076507568359375,0.0584259033203125
1762361569839016200,11.88901611328125,-0.9799346923828125,-0.0756988525390625,0.0684967041015625
1762361569848993000,11.898992919921875,-0.9841461181640625,-0.0769805908203125,0.07501220703125
1762361569858970000,11.90897021484375,-0.989227294921875,-0.0733795166015625,0.07989501953125
1762361569868947200,11.918947265625,-0.990142822265625,-0.0782470703125,0.0836639404296875
1762361569878924000,11.928924072265625,-0.9880218505859375,-0.0827178955078125,0.0862579345703125
1762361569888902100,11.938902099609376,-0.9824371337890625,-0.079345703125,0.08575439453125
1762361569898879000,11.94887890625,-0.9741058349609375,-0.077362060546875,0.0886688232421875
1762361569908856000,11.95885595703125,-0.9709014892578125,-0.0769500732421875,0.0956878662109375
1762361569918833200,11.968833251953125,-0.9699859619140625,-0.07794189453125,0.0985260009765625
1762361569928810200,11.978810302734376,-0.97705078125,-0.07562255859375,0.099945068359375
1762361569938787300,11.988787353515624,-0.978912353515625,-0.07513427734375,0.09710693359375
1762361569948764200,11.99876416015625,-0.97747802734375,-0.075531005859375,0.0945587158203125
1762361569958741200,12.0087412109375,-0.97406005859375,-0.0784454345703125,0.0966796875
1762361569968718000,12.018718017578125,-0.9726409912109375,-0.0767669677734375,0.1014862060546875
1762361569978695200,12.028695068359376,-0.97369384765625,-0.0792236328125,0.1040191650390625
1762361569988672300,12.03867236328125,-0.98101806640625,-0.0790557861328125,0.1086578369140625
1762361569998649000,12.048649169921875,-0.9827728271484375,-0.0764923095703125,0.1096038818359375
1762361570008626200,12.058626220703125,-0.985260009765625,-0.07379150390625,0.107696533203125
1762361570018603000,12.06860302734375,-0.9836883544921875,-0.07159423828125,0.10748291015625
1762361570028580000,12.078580078125,-0.982635498046875,-0.075469970703125,0.1041107177734375
1762361570038557000,12.088556884765625,-0.9861297607421875,-0.076080322265625,0.1052398681640625
1762361570048534300,12.0985341796875,-0.992584228515625,-0.07666015625,0.111114501953125
1762361570058511400,12.108511474609376,-0.9984283447265625,-0.0757904052734375,0.11773681640625
1762361570068488200,12.11848828125,-0.9964752197265625,-0.076202392578125,0.1234130859375
1762361570078465300,12.12846533203125,-0.989532470703125,-0.0754241943359375,0.1215972900390625
1762361570088442000,12.138442138671875,-0.9794464111328125,-0.0785675048828125,0.12261962890625
1762361570098419200,12.148419189453126,-0.9740142822265625,-0.0787811279296875,0.124481201171875
1762361570108396000,12.15839599609375,-0.973541259765625,-0.07659912109375,0.1299896240234375
1762361570118373000,12.168373046875,-0.975738525390625,-0.07501220703125,0.1438751220703125
1762361570128350200,12.17835009765625,-0.9770965576171875,-0.077392578125,0.1573028564453125
1762361570138327000,12.1883271484375,-0.9785003662109375,-0.0750732421875,0.1508636474609375
1762361570148304100,12.19830419921875,-0.989410400390625,-0.078460693359375,0.146453857421875
1762361570158281000,12.208281005859375,-0.991607666015625,-0.0634307861328125,0.1599578857421875
1762361570168258300,12.21825830078125,-0.99041748046875,-0.0647430419921875,0.1664581298828125
1762361570178235100,12.228235107421876,-0.9920196533203125,-0.062530517578125,0.1670989990234375
1762361570188212200,12.238212158203124,-0.9911346435546875,-0.0626983642578125,0.175079345703125
1762361570198189300,12.248189208984375,-0.9851837158203125,-0.05865478515625,0.1821441650390625
1762361570208166100,12.258166259765625,-0.9781036376953125,-0.06121826171875,0.183074951171875
1762361570218143200,12.268143310546876,-0.970977783203125,-0.067169189453125,0.1806488037109375
1762361570228120000,12.2781201171875,-0.9669342041015625,-0.06854248046875,0.1735076904296875
1762361570238097200,12.28809716796875,-0.9636077880859375,-0.0642547607421875,0.1759796142578125
1762361570248074000,12.298073974609375,-0.95849609375,-0.0623779296875,0.188385009765625
1762361570258051000,12.308051025390625,-0.9584197998046875,-0.0588226318359375,0.1934967041015625
1762361570268028200,12.318028076171874,-0.9674835205078125,-0.0591278076171875,0.189300537109375
1762361570278005200,12.328005126953125,-0.9752044677734375,-0.0618133544921875,0.18792724609375
1762361570287982300,12.337982421875,-0.9755096435546875,-0.0636749267578125,0.1897125244140625
1762361570297959200,12.347959228515625,-0.970855712890625,-0.0670623779296875,0.1918487548828125
1762361570307936300,12.357936279296876,-0.96539306640625,-0.0656280517578125,0.1981048583984375
1762361570317913000,12.3679130859375,-0.959869384765625,-0.0635833740234375,0.203857421875
1762361570327891200,12.37789111328125,-0.9645538330078125,-0.062042236328125,0.211517333984375
1762361570337868300,12.387868408203126,-0.9733428955078125,-0.06011962890625,0.212982177734375
1762361570347845000,12.39784521484375,-0.9710235595703125,-0.0604705810546875,0.2125091552734375
1762361570357822200,12.407822265625,-0.965423583984375,-0.058685302734375,0.2128143310546875
1762361570367799000,12.417799072265625,-0.9618682861328125,-0.0579071044921875,0.2131195068359375
1762361570377776000,12.427776123046876,-0.96002197265625,-0.0638885498046875,0.2113189697265625
1762361570387753200,12.437753173828124,-0.955108642578125,-0.0684661865234375,0.215545654296875
1762361570397730000,12.44772998046875,-0.955230712890625,-0.0678863525390625,0.2194671630859375
1762361570407707100,12.45770703125,-0.9560699462890625,-0.0702972412109375,0.226287841796875
1762361570417684000,12.46768408203125,-0.9534759521484375,-0.06488037109375,0.222442626953125
1762361570427661000,12.4776611328125,-0.9523773193359375,-0.0652008056640625,0.2298431396484375
1762361570437638100,12.48763818359375,-0.94989013671875,-0.0653839111328125,0.2352752685546875
1762361570447615200,12.497615234375,-0.946533203125,-0.0657196044921875,0.2339935302734375
1762361570457592300,12.50759228515625,-0.9440155029296875,-0.0642242431640625,0.2397613525390625
1762361570467569200,12.517569091796876,-0.940704345703125,-0.0610198974609375,0.2485809326171875
1762361570477546200,12.527546142578124,-0.937530517578125,-0.0582122802734375,0.257598876953125
1762361570487523000,12.537523193359375,-0.9383697509765625,-0.0582275390625,0.2617645263671875
1762361570497500200,12.547500244140625,-0.9426116943359375,-0.0617828369140625,0.2620697021484375
1762361570507477000,12.55747705078125,-0.9517974853515625,-0.0591278076171875,0.2636871337890625
1762361570517454000,12.5674541015625,-0.9616851806640625,-0.05499267578125,0.26348876953125
1762361570527431200,12.57743115234375,-0.96661376953125,-0.053070068359375,0.2663116455078125
1762361570537408000,12.587407958984375,-0.9621734619140625,-0.051971435546875,0.2752685546875
1762361570547385000,12.597385009765626,-0.9537200927734375,-0.0491943359375,0.2801513671875
1762361570557362200,12.607362060546874,-0.9484100341796875,-0.048370361328125,0.2820892333984375
1762361570567339300,12.61733935546875,-0.9481658935546875,-0.0505523681640625,0.2864837646484375
1762361570577316000,12.627316162109375,-0.948944091796875,-0.0536651611328125,0.2855987548828125
1762361570587293200,12.637293212890626,-0.94708251953125,-0.053955078125,0.288543701171875
1762361570597270300,12.647270263671874,-0.9436492919921875,-0.050750732421875,0.2917327880859375
1762361570607247000,12.6572470703125,-0.948455810546875,-0.05023193359375,0.2955169677734375
1762361570617224200,12.66722412109375,-0.9541168212890625,-0.0504302978515625,0.292572021484375
1762361570627201000,12.677200927734376,-0.9571685791015625,-0.0482025146484375,0.29443359375
1762361570637178000,12.68717822265625,-0.9572601318359375,-0.0479583740234375,0.2978057861328125
1762361570647155000,12.697155029296875,-0.9597320556640625,-0.0466156005859375,0.3006439208984375
1762361570657132000,12.707132080078125,-0.9576263427734375,-0.0453338623046875,0.302825927734375
1762361570667109400,12.717109375,-0.9594573974609375,-0.0423126220703125,0.2979888916015625
1762361570677086200,12.727086181640624,-0.9543304443359375,-0.0449066162109375,0.2957763671875
1762361570687063300,12.737063232421875,-0.9495391845703125,-0.050628662109375,0.2987213134765625
1762361570697040100,12.7470400390625,-0.9423065185546875,-0.0522613525390625,0.300872802734375
1762361570707017200,12.757017333984376,-0.9302978515625,-0.0558013916015625,0.3022308349609375
1762361570716994000,12.766994140625,-0.9240875244140625,-0.05462646484375,0.3056488037109375
1762361570726971100,12.77697119140625,-0.9315643310546875,-0.0523834228515625,0.3085479736328125
1762361570736948200,12.7869482421875,-0.940704345703125,-0.0567169189453125,0.3103179931640625
