time,seconds_elapsed,z,y,x
1762361557998715100,0.048715087890625,-0.011693141423165798,-0.0447528250515461,0.012650281190872192
1762361558008692200,0.058692138671875,-0.001038632821291685,-0.04430088400840759,0.02864282950758934
1762361558018669000,0.0686689453125,0.005175587255507708,-0.0382097028195858,0.03230787068605423
1762361558028646100,0.078646240234375,0.010428139939904213,-0.03308524936437607,0.031851138919591904
1762361558038623000,0.088623046875,0.012432700954377651,-0.019104186445474625,0.023872843012213707
1762361558048601000,0.09860107421875,0.011003382503986359,-0.00944916158914566,0.007164968643337488
1762361558058578200,0.108578125,0.012721387669444084,-0.008177502080798149,-0.007418501656502485
1762361558068555000,0.118554931640625,0.011520301923155785,-0.011667042039334774,-0.01757925935089588
1762361558078532000,0.128531982421875,0.011235876940190792,-0.0054272557608783245,-0.017489777877926826
1762361558088509200,0.13850927734375,0.007838748395442963,-0.0000774979853304103,-0.007795871235430241
1762361558098486300,0.148486328125,0.008726646192371845,-0.0015603461069986224,0.007104248274117708
1762361558108463400,0.15846337890625,0.00791225116699934,-0.00896766223013401,0.021221932023763657
1762361558118441200,0.168441162109375,0.010515491478145123,-0.023154588416218758,0.028381839394569397
1762361558128418300,0.178418212890625,0.016025837510824203,-0.030879085883498192,0.03254063427448273
1762361558138395400,0.1883955078125,0.017473531886935234,-0.027840418741106987,0.026160230860114098
1762361558148372200,0.198372314453125,0.01889166608452797,-0.019339343532919884,0.014421283267438412
1762361558158349300,0.208349365234375,0.021260546520352364,-0.01738271862268448,0.007166832685470581
1762361558168326100,0.218326171875,0.02196388877928257,-0.016865799203515053,0.009164470247924328
1762361558178304300,0.22830419921875,0.016451943665742874,-0.01853267103433609,0.011402856558561325
1762361558188281300,0.23828125,0.014461763203144073,-0.02431013248860836,0.019388346001505852
1762361558198258200,0.248258056640625,0.006898385938256979,-0.017948107793927193,0.028543494641780853
1762361558208235300,0.2582353515625,0.001532382913865149,-0.011577825993299484,0.0362916961312294
1762361558218212000,0.268212158203125,-0.00042557314736768603,-0.020846160128712654,0.036794498562812805
1762361558228189200,0.278189208984375,-0.0046722497791051865,-0.031013309955596924,0.02774081751704216
1762361558238166000,0.288166015625,-0.007288272958248854,-0.040468331426382065,0.010845723561942577
1762361558248144100,0.29814404296875,-0.007692806888371706,-0.03394225239753723,-0.0032474587205797434
1762361558258121200,0.308121337890625,-0.00818123109638691,-0.026681145653128624,-0.007328220177441835
1762361558268098000,0.31809814453125,0.00035739620216190815,-0.009584183804690838,-0.004073305055499077
1762361558278075100,0.3280751953125,0.005921272095292807,0.007380684372037649,0.0033622407354414463
1762361558288052000,0.338052001953125,0.004576642066240311,0.009446232579648495,0.00765951769426465
1762361558298029300,0.348029296875,-0.0003755057114176452,-0.0016247945604845881,0.006931409239768982
1762361558308006400,0.35800634765625,0.00009081379539566115,-0.014459100551903248,0.0049375006929039955
1762361558317984000,0.36798388671875,-0.002927879337221384,-0.026560770347714424,0.010119212791323662
1762361558327961000,0.377961181640625,0.0013888385146856308,-0.03675561770796776,0.02569763921201229
1762361558337938400,0.3879384765625,0.00902944803237915,-0.04940083995461464,0.04372803866863251
1762361558347915300,0.397915283203125,0.01684662513434887,-0.04594938084483147,0.056542105972766876
1762361558357892400,0.407892333984375,0.022707710042595863,-0.05348639562726021,0.06545490771532059
1762361558367869200,0.417869140625,0.026139192283153534,-0.06840036064386368,0.0742260292172432
1762361558377846300,0.42784619140625,0.02533172257244587,-0.08089857548475266,0.06860462576150894
1762361558387824400,0.437824462890625,0.022245917469263077,-0.08561956137418747,0.05272712558507919
1762361558397801200,0.44780126953125,0.01944214105606079,-0.08513699471950531,0.04111308231949806
1762361558407778300,0.4577783203125,0.016090553253889084,-0.06695586442947388,0.04171122610569
1762361558417755100,0.467755126953125,0.01366228237748146,-0.0412832573056221,0.05411543324589729
1762361558427732200,0.477732177734375,0.008202003315091133,-0.015562714077532291,0.07031384110450745
1762361558437709000,0.487708984375,0.004737230949103832,0.002397643867880106,0.08019150793552399
1762361558447686100,0.49768603515625,-0.0016527577536180615,0.020602745935320854,0.07263825088739395
1762361558457664300,0.507664306640625,-0.006201969459652901,0.030890537425875664,0.05210181698203087
1762361558467641000,0.51764111328125,-0.006388124544173479,0.02756478264927864,0.02544970065355301
1762361558477618200,0.5276181640625,-0.004245078656822443,0.003862116253003478,0.009522931650280952
1762361558487595000,0.537594970703125,-0.004266916774213314,-0.02835121378302574,0.0047060721553862095
1762361558497572000,0.547572021484375,0.007644870318472385,-0.037512753158807755,0.014404239133000374
1762361558507549200,0.557549072265625,0.01182416919618845,-0.027757061645388603,0.02924257330596447
1762361558517526300,0.5675263671875,0.010293117724359035,-0.006361226551234722,0.038790274411439896
1762361558527504100,0.577504150390625,0.00631914846599102,0.008550078608095646,0.032710008323192596
1762361558537481200,0.587481201171875,0.003064499469473958,-0.002698581200093031,0.008305867202579975
1762361558547458000,0.5974580078125,-0.003930026665329933,-0.03175020590424538,-0.016703346744179726
1762361558557435400,0.607435302734375,-0.004589691758155823,-0.05155427008867264,-0.022638466209173203
1762361558567412200,0.617412109375,-0.007788414601236582,-0.052738845348358154,-0.00899988692253828
1762361558577389300,0.627389404296875,-0.006597449071705341,-0.037223536521196365,0.009522931650280952
1762361558587366100,0.6373662109375,-0.004729773849248886,-0.018428808078169823,0.024456340819597244
1762361558597344300,0.64734423828125,-0.0014168017078191042,-0.004248274490237236,0.02689632959663868
1762361558607321300,0.6573212890625,0.0011179950088262558,-0.0016146745765581727,0.022408902645111084
1762361558617298200,0.667298095703125,0.005359611473977566,-0.005230980925261974,0.015920642763376236
1762361558627275300,0.677275146484375,0.009816944599151611,-0.004490888677537441,0.006840329151600599
1762361558637252000,0.687252197265625,0.017074057832360268,-0.0034498588647693396,-0.007786550559103489
1762361558647229200,0.697229248046875,0.024273913353681564,-0.0034669029992073774,-0.022653114050626755
1762361558657206300,0.707206298828125,0.02841220051050186,-0.011456652544438839,-0.03172757104039192
1762361558667184000,0.71718408203125,0.029040172696113586,-0.034094322472810745,-0.03430550917983055
1762361558677161200,0.7271611328125,0.02948412299156189,-0.04045421630144119,-0.022775886580348015
1762361558687138000,0.737137939453125,0.026808178052306175,-0.024469656869769096,0.002025600289925933
1762361558697115100,0.747115234375,0.020264791324734688,-0.006956709548830986,0.024566063657402992
1762361558707092200,0.75709228515625,0.018989402800798416,-0.007486145943403244,0.04093198850750923
1762361558717069000,0.767069091796875,0.01842241734266281,-0.025974875316023827,0.04581382870674133
1762361558727046100,0.777046142578125,0.013162407092750072,-0.03700701892375946,0.04741332307457924
1762361558737023200,0.787023193359375,0.007904794998466969,-0.035532426089048386,0.03828506916761398
1762361558747001000,0.7970009765625,0.005396629683673382,-0.019516443833708763,0.02190529927611351
1762361558756978200,0.806978271484375,0.003062102710828185,-0.010125604458153248,-0.00042983421008102596
1762361558766955300,0.816955322265625,0.006628607865422964,-0.00040986048406921327,-0.019280221313238144
1762361558776932400,0.826932373046875,0.009209743700921535,0.0165408942848444,-0.03617851063609123
1762361558786909200,0.8369091796875,0.01044545043259859,0.02636662684381008,-0.06089930236339569
1762361558796886300,0.84688623046875,0.010722685605287552,0.019579026848077774,-0.07754086703062057
1762361558806864400,0.856864501953125,0.01071176677942276,0.01453100610524416,-0.08030975610017776
1762361558816841200,0.86684130859375,0.0034266894217580557,0.0024868599139153957,-0.0737069770693779
1762361558826818600,0.876818603515625,-0.0025063008069992065,-0.007787082809954882,-0.06352358311414719
1762361558836795400,0.88679541015625,-0.0014064153656363487,-0.007668306119740009,-0.03788559511303902
1762361558846772500,0.8967724609375,-0.006425675004720688,-0.00806298665702343,-0.014372015371918678
1762361558856749600,0.90674951171875,-0.009832390584051609,-0.017317472025752068,0.00011771172285079956
1762361558866726400,0.916726318359375,-0.010567422956228256,-0.014677479863166809,-0.004893292207270861
1762361558876703500,0.926703369140625,-0.007455519400537014,-0.021572403609752655,-0.01956251636147499
1762361558886681600,0.936681640625,-0.005650961305946112,-0.03314250707626343,-0.038480281829833984
1762361558896658400,0.946658447265625,-0.003562244353815913,-0.02797437645494938,-0.05973470211029053
1762361558906635500,0.956635498046875,-0.003934021573513746,-0.014141385443508625,-0.0735546424984932
1762361558916612400,0.9666123046875,-0.004510063212364912,0.001461010193452239,-0.08158168196678162
1762361558926589400,0.97658935546875,-0.003129746997728944,0.016643691807985306,-0.08667577058076859
1762361558936566300,0.986566162109375,-0.006652576383203268,0.02827850915491581,-0.08626511693000793
1762361558946543400,0.99654345703125,-0.008816661313176155,0.03480139002203941,-0.07024326920509338
1762361558956520400,1.0065205078125,-0.01296533364802599,0.040889907628297806,-0.04446014389395714
1762361558966498300,1.016498291015625,-0.016232766211032867,0.04092159867286682,-0.009161806665360928
1762361558976475400,1.026475341796875,-0.014843394979834557,0.04784022644162178,0.022282935678958893
1762361558986452200,1.0364521484375,-0.013943778350949287,0.05270875245332718,0.03130306303501129
1762361558996429600,1.0464296875,-0.008668056689202785,0.02972886711359024,0.01769723743200302
1762361559006406700,1.05640673828125,-0.001999767730012536,-0.007001183927059174,-0.0015006912872195244
1762361559016383500,1.066383544921875,0.005027781706303358,-0.04300792142748833,-0.01846582628786564
1762361559026360600,1.076360595703125,0.008764197118580341,-0.059485431760549545,-0.025258485227823257
1762361559036338400,1.08633837890625,0.010353571735322475,-0.0479760468006134,-0.02665291540324688
1762361559046315500,1.0963154296875,0.010445716790854931,-0.032469261437654495,-0.025365544483065605
1762361559056292600,1.106292724609375,0.009395631961524487,-0.0384344756603241,-0.015060975216329098
1762361559066269400,1.11626953125,0.0027324033435434103,-0.04314480721950531,-0.0005113269435241818
1762361559076246500,1.12624658203125,-0.007426491007208824,-0.04525882378220558,0.01714756153523922
1762361559086223400,1.136223388671875,-0.018425079062581062,-0.04568573087453842,0.029647108167409897
1762361559096200400,1.146200439453125,-0.026007099077105522,-0.04856380820274353,0.038784146308898926
1762361559106177300,1.15617724609375,-0.03357260674238205,-0.04801386594772339,0.03489033877849579
1762361559116155400,1.1661552734375,-0.037460025399923325,-0.030525151640176773,0.025359684601426125
1762361559126132500,1.176132568359375,-0.03423094004392624,-0.016108395531773567,0.0015238607302308083
1762361559136109300,1.186109375,-0.0331433042883873,-0.01455950178205967,-0.04405694082379341
1762361559146086400,1.19608642578125,-0.029818082228302956,-0.020021378993988037,-0.09422317147254944
1762361559156063500,1.2060634765625,-0.03074513003230095,-0.0482516847550869,-0.12149181216955185
1762361559166040300,1.216040283203125,-0.03748292848467827,-0.06606583297252655,-0.11256729066371918
1762361559176017400,1.226017333984375,-0.04376532509922981,-0.06075815483927727,-0.07191041111946106
1762361559185995300,1.235995361328125,-0.04717443510890007,-0.0333305262029171,-0.02429788187146187
1762361559195972400,1.245972412109375,-0.04870175942778587,0.0012460930738598108,0.01757606491446495
1762361559205949400,1.255949462890625,-0.04868684709072113,0.02190982550382614,0.03486237674951553
1762361559215926500,1.265926513671875,-0.049549177289009094,0.020531373098492622,0.03027348406612873
1762361559225903600,1.275903564453125,-0.047856736928224564,0.0017126789316534996,0.0113400062546134
1762361559235880400,1.28588037109375,-0.04121960699558258,-0.03579821065068245,-0.003623230615630746
1762361559245857500,1.295857421875,-0.03358326107263565,-0.06842300295829773,-0.004381166305392981
1762361559255834400,1.30583447265625,-0.027846278622746468,-0.11016485095024109,0.010439058765769005
1762361559265812500,1.3158125,-0.02220037765800953,-0.14922410249710083,0.03772341087460518
1762361559275789600,1.32578955078125,-0.013715545646846294,-0.1855725198984146,0.06720167398452759
1762361559285766400,1.335766357421875,-0.006701312027871609,-0.19383125007152557,0.09870900213718414
1762361559295743500,1.345743408203125,-0.0016133430181071162,-0.17793138325214386,0.12169394642114639
1762361559305720300,1.35572021484375,0.0038932752795517445,-0.1532454788684845,0.12345562875270844
1762361559315697400,1.365697509765625,0.007667507044970989,-0.12672358751296997,0.11855940520763397
1762361559325674500,1.375674560546875,0.010264089331030846,-0.10029411315917969,0.09785758703947067
1762361559335652400,1.38565234375,0.015590677969157696,-0.07529022544622421,0.06671351939439774
1762361559345629400,1.39562939453125,0.016103070229291916,-0.04297729581594467,0.02816719003021717
1762361559355606500,1.4056064453125,0.014368286356329918,-0.01997131109237671,-0.003897003596648574
1762361559365583400,1.415583251953125,0.012803146615624428,-0.01492062583565712,-0.019652796909213066
1762361559375560400,1.425560546875,0.01019564550369978,-0.0037140443455427885,-0.02857465296983719
1762361559385537300,1.435537353515625,0.0015076154377311468,0.0012594088912010193,-0.03278191387653351
1762361559395514400,1.445514404296875,0.0003656520275399089,-0.009338640607893467,-0.02841353230178356
1762361559405491500,1.455491455078125,0.005616606678813696,-0.03208762779831886,-0.02267495170235634
1762361559415469300,1.46546923828125,0.011742410250008106,-0.059412192553281784,-0.012477708980441093
1762361559425446400,1.4754462890625,0.020624319091439247,-0.05949901416897774,0.011516307480633259
1762361559435423500,1.485423583984375,0.025736521929502487,-0.03624003008008003,0.052895437926054
1762361559445400600,1.495400634765625,0.029140841215848923,-0.013917147181928158,0.08797912299633026
1762361559455377400,1.50537744140625,0.03417421504855156,0.006973487325012684,0.11073583364486694
1762361559465354500,1.5153544921875,0.039209987968206406,0.032830651849508286,0.12427614629268646
1762361559475331600,1.52533154296875,0.036675721406936646,0.03729544207453728,0.11829681694507599
1762361559485308400,1.535308349609375,0.027213511988520622,0.015994945541024208,0.08669361472129822
1762361559495286500,1.54528662109375,0.026073412969708443,-0.012928315438330173,0.03632897883653641
1762361559505263600,1.555263671875,0.031979769468307495,-0.027816716581583023,-0.007493602577596903
1762361559515240400,1.565240478515625,0.03762274235486984,-0.02003788948059082,-0.019931096583604813
1762361559525217500,1.575217529296875,0.046005308628082275,0.008570319041609764,-0.010976484976708889
1762361559535194400,1.5851943359375,0.04899230971932411,0.04936115816235542,0.0014705975772812963
1762361559545171500,1.59517138671875,0.04910336434841156,0.06848904490470886,0.0028581044171005487
1762361559555148300,1.605148193359375,0.04899337515234947,0.07180867344141006,-0.01101669855415821
1762361559565125400,1.61512548828125,0.041357558220624924,0.07409793138504028,-0.03773912414908409
1762361559575103500,1.625103515625,0.041435856372117996,0.07741915434598923,-0.06572095304727554
1762361559585080300,1.635080322265625,0.04126807674765587,0.09022443741559982,-0.0768420472741127
1762361559595057400,1.645057373046875,0.035845350474119186,0.07743354141712189,-0.07659570872783661
1762361559605034200,1.6550341796875,0.033489782363176346,0.044024717062711716,-0.0676536113023758
1762361559615011300,1.66501123046875,0.03959454596042633,0.027949342504143715,-0.039147403091192245
1762361559624988700,1.67498876953125,0.038721028715372086,0.020294353365898132,-0.0020511667244136333
1762361559634965500,1.684965576171875,0.04054476320743561,0.006843791343271732,0.025197498500347137
1762361559644942600,1.694942626953125,0.048101749271154404,0.016771256923675537,0.021574268117547035
1762361559654920400,1.70492041015625,0.049666088074445724,0.04127473384141922,-0.002782470779493451
1762361559664897500,1.7148974609375,0.0464753583073616,0.03970533609390259,-0.030604248866438866
1762361559674874600,1.72487451171875,0.048283375799655914,0.02461692877113819,-0.05270475521683693
1762361559684851500,1.7348515625,0.05511545017361641,0.028719795867800713,-0.06333982199430466
1762361559694828500,1.74482861328125,0.054426491260528564,0.044083572924137115,-0.06639952957630157
1762361559704805400,1.754805419921875,0.051235225051641464,0.03856390342116356,-0.061344850808382034
1762361559714782500,1.764782470703125,0.04891481250524521,0.01631505787372589,-0.05790617689490318
1762361559724759300,1.77475927734375,0.050100184977054596,0.01751827262341976,-0.050819505006074905
1762361559734737400,1.7847373046875,0.04946155846118927,0.022059496492147446,-0.033494044095277786
1762361559744714500,1.794714599609375,0.049381665885448456,0.013629792258143425,-0.016223710030317307
1762361559754691300,1.80469140625,0.04910522699356079,-0.016464194282889366,-0.00355798308737576
1762361559764668400,1.81466845703125,0.047272440046072006,-0.08637989312410355,0.005495699122548103
1762361559774645500,1.8246455078125,0.04488145560026169,-0.1388268619775772,0.016875119879841805
1762361559784622300,1.834622314453125,0.0401759147644043,-0.1380489468574524,0.04188033938407898
1762361559794599400,1.844599365234375,0.02893391251564026,-0.11018216609954834,0.07410458475351334
1762361559804576500,1.854576416015625,0.023335415869951248,-0.06272915750741959,0.09549589455127716
1762361559814554400,1.864554443359375,0.022114356979727745,-0.017770208418369293,0.09363727271556854
1762361559824531200,1.87453125,0.01677791401743889,-0.007135141175240278,0.060695305466651917
1762361559834508300,1.88450830078125,0.018794726580381393,-0.030438866466283798,0.011354120448231697
1762361559844485000,1.894485107421875,0.02527765929698944,-0.05113722011446953,-0.039923980832099915
1762361559854462200,1.904462158203125,0.028487300500273705,-0.04838990420103073,-0.08147329092025757
1762361559864439300,1.914439208984375,0.027050526812672615,-0.04127154126763344,-0.10638156533241272
1762361559874416000,1.924416015625,0.025296568870544434,-0.0398949533700943,-0.10941757261753082
1762361559884393200,1.934393310546875,0.02509762905538082,-0.02809368632733822,-0.08875756710767746
1762361559894371300,1.944371337890625,0.014884141273796558,0.0015736619243398309,-0.06251370906829834
1762361559904348200,1.95434814453125,0.011715245433151722,0.02075774222612381,-0.04934065043926239
1762361559914325200,1.9643251953125,-0.003032008884474635,0.02949637360870838,-0.058463044464588165
1762361559924302000,1.974302001953125,-0.024335965514183044,0.06376486271619797,-0.07790571451187134
1762361559934279200,1.984279052734375,-0.03754497691988945,0.08473140001296997,-0.09242686629295349
1762361559944256000,1.994256103515625,-0.03977430984377861,0.07134022563695908,-0.10036948323249817
1762361559954233000,2.004233154296875,-0.027086477726697922,0.03775164112448692,-0.09184923022985458
1762361559964210200,2.014210205078125,-0.02371544949710369,0.024051805958151817,-0.07135514169931412
1762361559974188000,2.02418798828125,-0.02279825694859028,-0.0002612560929264873,-0.05703398957848549
1762361559984165000,2.0341650390625,-0.020607540383934975,-0.02732323296368122,-0.05698365718126297
1762361559994142000,2.044141845703125,-0.015442339703440666,-0.04314587265253067,-0.06719262152910233
1762361560004119000,2.054119140625,-0.012953882105648518,-0.031987760215997696,-0.07153863459825516
1762361560014096400,2.064096435546875,-0.009248092770576477,-0.004971855320036411,-0.06349269300699234
1762361560024073200,2.0740732421875,-0.005028847139328718,0.006219013594090939,-0.04001585766673088
1762361560034050300,2.08405029296875,-0.0011669971281662583,0.01582024246454239,-0.019279422238469124
1762361560044027100,2.094027099609375,-0.0031033814884722233,0.03858174756169319,-0.0035119105596095324
1762361560054005200,2.104005126953125,-0.00267807487398386,0.05981646105647087,-0.0075516593642532825
1762361560063982300,2.113982421875,-0.00044128578156232834,0.05108102783560753,-0.022396385669708252
1762361560073959200,2.123959228515625,0.0033041839487850666,0.01581651344895363,-0.04429023340344429
1762361560083936300,2.133936279296875,0.010807906277477741,-0.013141634874045849,-0.06569778919219971
1762361560093913000,2.1439130859375,0.010244381614029408,-0.024883246049284935,-0.07416211068630219
1762361560103890200,2.15389013671875,0.007838482037186623,-0.017417339608073235,-0.07134448736906052
1762361560113867000,2.163866943359375,0.004448810592293739,0.0029108349699527025,-0.057727742940187454
1762361560123844000,2.173843994140625,0.004448277875781059,0.01257810927927494,-0.029870280995965004
1762361560133822200,2.183822265625,0.005286907311528921,0.024058731272816658,0.0144710848107934
1762361560143799000,2.193799072265625,0.0024319987278431654,0.029834328219294548,0.06667330116033554
1762361560153776000,2.203776123046875,-0.0007667240570299327,0.01871323399245739,0.09887491166591644
1762361560163753200,2.213753173828125,-0.006471747532486916,-0.01714569702744484,0.10761434584856033
1762361560173730000,2.22372998046875,-0.007237140089273453,-0.049863431602716446,0.09133470803499222
1762361560183707100,2.23370703125,-0.007097324356436729,-0.05493542179465294,0.06118319556117058
1762361560193684200,2.243684326171875,-0.009751697070896626,-0.02081526629626751,0.029800239950418472
1762361560203661300,2.253661376953125,-0.013626063242554665,0.024231569841504097,0.007010238710790873
1762361560213638100,2.26363818359375,-0.017132380977272987,0.08468799293041229,0.0005760417552664876
1762361560223616000,2.273615966796875,-0.021923674270510674,0.13587340712547302,0.000147272803587839
1762361560233593300,2.28359326171875,-0.024960476905107498,0.1702183336019516,-0.0013768542557954788
1762361560243570200,2.293570068359375,-0.017589112743735313,0.18766097724437714,-0.014828747138381004
1762361560253547300,2.30354736328125,-0.012701946310698986,0.18517625331878662,-0.045811429619789124
1762361560263524000,2.313524169921875,-0.015905197709798813,0.1568804234266281,-0.08652450889348984
1762361560273501200,2.323501220703125,-0.016929449513554573,0.09892471879720688,-0.1255752295255661
1762361560283478300,2.333478271484375,-0.01804185099899769,0.050226420164108276,-0.13986308872699738
1762361560293455000,2.343455078125,-0.017176855355501175,0.005198223982006311,-0.12279809266328812
1762361560303433200,2.35343310546875,-0.012534167617559433,-0.03477901965379715,-0.08480729907751083
1762361560313410000,2.36341015625,-0.00854315422475338,-0.05886731296777725,-0.03618117421865463
1762361560323387100,2.37338720703125,-0.005662412848323584,-0.05860099568963051,0.00390286254696548
1762361560333364200,2.3833642578125,-0.004570783115923405,-0.037947382777929306,0.02219531685113907
1762361560343341000,2.393341064453125,-0.01293310895562172,-0.018182998523116112,0.022892266511917114
1762361560353318100,2.403318115234375,-0.016772055998444557,-0.020194217562675476,0.01438293419778347
1762361560363295000,2.413294921875,-0.009927465580403805,-0.02473064698278904,0.00629091914743185
1762361560373272000,2.42327197265625,-0.0054605454206466675,-0.016525447368621826,-0.0008221178431995213
1762361560383250200,2.433250244140625,-0.005169994663447142,-0.018444787710905075,-0.011056379415094852
1762361560393227000,2.44322705078125,-0.0010783139150589705,-0.03014884702861309,-0.027455592527985573
1762361560403204000,2.4532041015625,0.003629888640716672,-0.03832688182592392,-0.041619881987571716
1762361560413181200,2.46318115234375,0.012920858338475227,-0.035656265914440155,-0.04302070289850235
1762361560423158300,2.473158203125,0.026012958958745003,-0.029690250754356384,-0.036378245800733566
1762361560433135400,2.48313525390625,0.03796149790287018,-0.020849088206887245,-0.01871509850025177
1762361560443112200,2.4931123046875,0.04513552039861679,-0.007815046235918999,-0.007187072653323412
1762361560453089300,2.50308935546875,0.05073801055550575,-0.005822469014674425,-0.0022538332268595695
1762361560463066000,2.513066162109375,0.04764208570122719,-0.011904329992830753,-0.009753295220434666
1762361560473044200,2.523044189453125,0.04361751675605774,-0.011416172608733177,-0.03153049573302269
1762361560483021300,2.533021240234375,0.033977407962083817,-0.0007238471880555153,-0.062016766518354416
1762361560492998100,2.542998046875,0.02672535367310047,0.006931409239768982,-0.08375322073698044
1762361560502975200,2.552975341796875,0.022663766518235207,0.008077899925410748,-0.08807366341352463
1762361560512952000,2.5629521484375,0.018692195415496826,0.0006564692012034357,-0.07546839118003845
1762361560522929200,2.57292919921875,0.016470851376652718,-0.01613742485642433,-0.058704592287540436
1762361560532906000,2.582906005859375,0.011243599466979504,-0.03292252868413925,-0.03995966538786888
1762361560542883000,2.592883056640625,0.004162254277616739,-0.03939800709486008,-0.02111034467816353
1762361560552860200,2.602860107421875,-0.005109540652483702,-0.03169640898704529,0.007505320478230715
1762361560562838000,2.612838134765625,-0.009888051077723503,-0.034210968762636185,0.027752535417675972
1762361560572815000,2.622815185546875,-0.006338856182992458,-0.03948136419057846,0.031031152233481407
1762361560582792000,2.6327919921875,-0.003428020980209112,-0.03987311199307442,0.015657790005207062
1762361560592769000,2.64276904296875,0.001657551503740251,-0.03206552565097809,-0.0062853265553712845
1762361560602746400,2.652746337890625,0.006178267300128937,-0.020621921867132187,-0.039143141359090805
1762361560612723200,2.66272314453125,0.005833387840539217,-0.017849303781986237,-0.07010798156261444
1762361560622700300,2.6727001953125,0.0054605454206466675,-0.021989988163113594,-0.09427963197231293
1762361560632677000,2.682677001953125,0.009325058199465275,-0.024293089285492897,-0.10056176036596298
1762361560642654200,2.692654296875,0.01230486948043108,-0.026557307690382004,-0.08722251653671265
1762361560652632300,2.70263232421875,0.01366308145225048,-0.02292582206428051,-0.06669007986783981
1762361560662609200,2.712609130859375,0.012732572853565216,-0.008258462883532047,-0.050335608422756195
1762361560672586200,2.722586181640625,0.011932026594877243,0.010335462167859077,-0.051957208663225174
1762361560682563000,2.73256298828125,0.005509547423571348,0.022372683510184288,-0.05940207466483116
1762361560692540200,2.7425400390625,0.00869016069918871,0.024955417960882187,-0.06962382048368454
1762361560702517200,2.752517333984375,0.018914036452770233,0.02599085494875908,-0.07549582421779633
1762361560712494000,2.762494140625,0.029773075133562088,0.026489131152629852,-0.0798567458987236
1762361560722471200,2.77247119140625,0.033371537923812866,0.014901984483003616,-0.0746457427740097
1762361560732449000,2.782448974609375,0.03308471664786339,-0.010161290876567364,-0.06718729436397552
1762361560742426000,2.792426025390625,0.03455105423927307,-0.03759957477450371,-0.053100235760211945
1762361560752403200,2.8024033203125,0.031217306852340698,-0.043902743607759476,-0.03614708408713341
1762361560762380000,2.812380126953125,0.02617834135890007,-0.03501896932721138,-0.018026936799287796
1762361560772357000,2.822357177734375,0.018284996971488,-0.012718458659946918,-0.006661098450422287
1762361560782334200,2.832334228515625,0.012328837998211384,0.015361113473773003,-0.00703846849501133
1762361560792311300,2.842311279296875,0.008070443756878376,0.026865169405937195,-0.015693742781877518
1762361560802288000,2.8522880859375,0.00749120581895113,0.022958045825362206,-0.021144166588783264
1762361560812265200,2.86226513671875,0.008990298956632614,0.01116423774510622,-0.023980965837836266
1762361560822247200,2.8722470703125,0.015724901109933853,-0.0010450243717059493,-0.028316326439380646
1762361560832224300,2.882224365234375,0.025905366986989975,0.000931307440623641,-0.03092382661998272
1762361560842201300,2.892201416015625,0.0337049663066864,0.011575429700314999,-0.02833789773285389
1762361560852178400,2.902178466796875,0.044059868901968,0.025644909590482712,-0.021566012874245644
1762361560862155300,2.9121552734375,0.0543292835354805,0.02387816831469536,-0.008522115647792816
1762361560872132400,2.92213232421875,0.05566512793302536,0.020710337907075882,-0.002127599436789751
1762361560882109200,2.932109130859375,0.05295056477189064,0.015860721468925476,-0.0072983927093446255
1762361560892086300,2.942086181640625,0.04710838943719864,0.012053733691573143,-0.020144682377576828
1762361560902064400,2.952064453125,0.03437528386712074,0.004689027555286884,-0.030468426644802094
1762361560912041200,2.962041259765625,0.022364161908626556,0.019818978384137154,-0.038297053426504135
1762361560922018300,2.972018310546875,0.009179649874567986,0.03365223482251167,-0.03983183577656746
1762361560931995400,2.981995361328125,-0.0023552996572107077,0.023866184055805206,-0.04337730258703232
1762361560941972200,2.99197216796875,-0.009442237205803394,0.009687514975667,-0.048533979803323746
1762361560951949300,3.00194921875,-0.011019361205399036,0.0074030552059412,-0.04645538330078125
1762361560961926100,3.011926025390625,-0.010422813706099987,0.012088621035218239,-0.0394936129450798
1762361560971903200,3.0219033203125,-0.007820372469723225,0.009465673007071018,-0.03346395120024681
1762361560981880000,3.031880126953125,-0.004802478477358818,0.0013315805699676275,-0.028320588171482086
1762361560991857400,3.041857421875,-0.0018575548892840743,-0.0072901370003819466,-0.019751867279410362
1762361561001835300,3.051835205078125,0.003151052165776491,-0.024955151602625847,-0.013904896564781666
1762361561011812000,3.06181201171875,0.011396731249988079,-0.04453577473759651,-0.0059569585137069225
1762361561021789400,3.07178955078125,0.012618856504559517,-0.03816762566566467,0.002575543010607362
1762361561031766300,3.081766357421875,0.008380435407161713,-0.020142551511526108,0.015673501417040825
1762361561041743400,3.091743408203125,0.0015425028977915645,-0.0046634613536298275,0.022878151386976242
1762361561051720400,3.101720458984375,-0.0008689894457347691,0.003712979145348072,0.019600067287683487
1762361561061697300,3.111697265625,-0.001526257605291903,0.01176318246871233,0.011041199788451195
1762361561071674400,3.12167431640625,-0.0016732640797272325,0.00902784988284111,0.0008207862265408039
1762361561081651200,3.131651123046875,0.0016982977977022529,0.005541505757719278,-0.007607319392263889
1762361561091629300,3.14162939453125,0.004010720644146204,0.005393433850258589,-0.00708773685619235
1762361561101606400,3.1516064453125,0.0024700819049030542,0.007512244861572981,0.0038866172544658184
1762361561111583200,3.161583251953125,0.002853044541552663,0.00857431348413229,0.013369601219892502
1762361561121560300,3.171560302734375,0.004817125853151083,0.00315930787473917,0.015096128918230534
1762361561131537200,3.181537109375,0.010916563682258129,-0.007501858286559582,0.005426190793514252
1762361561141514200,3.19151416015625,0.016454340890049934,-0.022057631984353065,-0.01152695994824171
1762361561151491000,3.201490966796875,0.023437682539224625,-0.03472921997308731,-0.025463281199336052
1762361561161468200,3.21146826171875,0.0236978717148304,-0.049974218010902405,-0.030793864279985428
1762361561171445200,3.2214453125,0.020977454259991646,-0.051352668553590775,-0.022222481667995453
1762361561181423000,3.231423095703125,0.011225756257772446,-0.04161588475108147,-0.0057465690188109875
1762361561191400200,3.241400146484375,-0.003622964257374406,-0.030435137450695038,0.0070552462711930275
1762361561201377300,3.251377197265625,-0.014823154546320438,-0.023840351030230522,0.008856608532369137
1762361561211354400,3.261354248046875,-0.024051006883382797,-0.013615410774946213,-0.002639192622154951
1762361561221331500,3.27133154296875,-0.029097698628902435,0.0017467673169448972,-0.02154204435646534
1762361561231308300,3.281308349609375,-0.03190387040376663,0.00532658863812685,-0.04345879331231117
1762361561241285400,3.291285400390625,-0.0287027508020401,0.011581555008888245,-0.059177037328481674
1762361561251262200,3.30126220703125,-0.02688727341592312,0.022520221769809723,-0.071906678378582
1762361561261239300,3.3112392578125,-0.02707928791642189,0.030419956892728806,-0.07160387933254242
1762361561271217400,3.321217529296875,-0.02467685006558895,0.03485678508877754,-0.06358403712511063
1762361561281194200,3.3311943359375,-0.020673053339123726,0.03573349490761757,-0.05218064785003662
1762361561291171300,3.34117138671875,-0.017175525426864624,0.027528563514351845,-0.04500848799943924
1762361561301148200,3.351148193359375,-0.01344363670796156,0.008218248374760151,-0.03985953330993652
1762361561311125200,3.361125244140625,-0.006536995060741901,-0.009689378552138805,-0.02809448540210724
1762361561321102300,3.371102294921875,-0.0046818372793495655,-0.009878463111817837,-0.008051535114645958
1762361561331079200,3.3810791015625,-0.004005394410341978,0.000993625377304852,0.006322877015918493
1762361561341056300,3.39105615234375,-0.005532717332243919,0.01798485964536667,0.004078631289303303
1762361561351033000,3.401033203125,-0.00233825552277267,0.0351361483335495,-0.00791305024176836
1762361561361010400,3.411010498046875,0.0011036139912903309,0.045275602489709854,-0.01991645060479641
1762361561370988300,3.42098828125,0.004036819562315941,0.047076430171728134,-0.029859095811843872
1762361561380965000,3.430965087890625,0.0065258098766207695,0.04478318244218826,-0.03729304298758507
1762361561390942200,3.440942138671875,0.009004414081573486,0.043586891144514084,-0.036373186856508255
1762361561400919300,3.450919189453125,0.010007626377046108,0.038247786462306976,-0.028501948341727257
1762361561410896400,3.460896484375,0.01503993570804596,0.03302053362131119,-0.012573848478496075
1762361561420873200,3.470873291015625,0.020238425582647324,0.030369091778993607,0.005352953914552927
1762361561430850300,3.480850341796875,0.027764786034822464,0.03256832808256149,0.018444521352648735
1762361561440827400,3.490827392578125,0.028358669951558113,0.03648211061954498,0.018202438950538635
1762361561450804200,3.50080419921875,0.02985483407974243,0.03483467921614647,0.005565740168094635
1762361561460782300,3.5107822265625,0.022245651111006737,0.01047181524336338,-0.012689430266618729
1762361561470759400,3.520759521484375,0.019025089219212532,-0.014130466617643833,-0.028716599568724632
1762361561480736300,3.530736328125,0.012119513005018234,-0.013543238863348961,-0.03197444602847099
1762361561490713300,3.54071337890625,0.007409979589283466,0.005759884603321552,-0.029916886240243912
1762361561500690200,3.550690185546875,-0.0012058793799951673,0.024577781558036804,-0.028741367161273956
1762361561510667300,3.560667236328125,-0.01056049857288599,0.031615182757377625,-0.028484638780355453
1762361561520644000,3.57064404296875,-0.018196847289800644,0.030459638684988022,-0.03939933702349663
1762361561530621200,3.58062109375,-0.018020812422037125,0.023264842107892036,-0.04680532217025757
1762361561540598300,3.590598388671875,-0.014229003340005875,0.013718209229409695,-0.04839443042874336
1762361561550576000,3.600576171875,-0.009928531013429165,-0.0008791094878688455,-0.05023201182484627
1762361561560553200,3.61055322265625,-0.0034621094819158316,0.013909956440329552,-0.04814968630671501
1762361561570530300,3.6205302734375,-0.0021494373213499784,0.0430729016661644,-0.039139412343502045
1762361561580507400,3.63050732421875,-0.000010652644050423987,0.05383500084280968,-0.0236430112272501
1762361561590484500,3.640484375,0.009226521477103233,0.05872589722275734,-0.019535085186362267
1762361561600461300,3.65046142578125,0.01738831214606762,0.0653795376420021,-0.03001675382256508
1762361561610438400,3.6604384765625,0.024261929094791412,0.063397616147995,-0.048596564680337906
1762361561620415200,3.670415283203125,0.029808228835463524,0.03740489482879639,-0.07493842393159866
1762361561630392300,3.680392333984375,0.03749597445130348,0.016813334077596664,-0.09084335714578629
1762361561640369200,3.690369140625,0.041908569633960724,0.021832328289747238,-0.0917229950428009
1762361561650347300,3.70034716796875,0.04230697825551033,0.01098447386175394,-0.0711657926440239
1762361561660324400,3.710324462890625,0.04597441479563713,0.006611563730984926,-0.044852957129478455
1762361561670301200,3.72030126953125,0.04307183623313904,0.01082628220319748,-0.007990814745426178
1762361561680278300,3.7302783203125,0.04020973667502403,0.007604124024510384,0.03148708492517471
1762361561690255000,3.740255126953125,0.038413435220718384,0.012438826262950897,0.06316006183624268
1762361561700232200,3.750232177734375,0.038186267018318176,0.005936718545854092,0.08090709894895554
1762361561710209300,3.760209228515625,0.040286436676979065,0.014336062595248222,0.08453938364982605
1762361561720186000,3.77018603515625,0.037338584661483765,0.025301894173026085,0.07467450201511383
1762361561730163500,3.78016357421875,0.036311402916908264,0.03213130310177803,0.05066850408911705
1762361561740140300,3.790140380859375,0.03999615088105202,0.04490409046411514,0.02991475537419319
1762361561750118100,3.8001181640625,0.04382258281111717,0.0556640625,0.011752796359360218
1762361561760095200,3.81009521484375,0.04534777253866196,0.05854666605591774,0.009066731669008732
1762361561770072300,3.820072265625,0.04506361484527588,0.07059374451637268,0.01073706615716219
1762361561780049400,3.83004931640625,0.04538585618138313,0.07164569199085236,0.012878247536718845
1762361561790026200,3.840026123046875,0.04838244616985321,0.05979542434215546,0.014844459481537342
1762361561800003300,3.85000341796875,0.047624778002500534,0.047814927995204926,0.02304619736969471
1762361561809980400,3.85998046875,0.04929298162460327,0.04958592727780342,0.04745353385806084
1762361561819957200,3.869957275390625,0.047502536326646805,0.06749941408634186,0.07515493780374527
1762361561829929700,3.8799296875,0.04502393305301666,0.07218391448259354,0.09856199473142624
1762361561839906800,3.88990673828125,0.036857083439826965,0.060200490057468414,0.10242197662591934
1762361561849884700,3.899884765625,0.0318404883146286,0.036388102918863297,0.09858143329620361
1762361561859861800,3.90986181640625,0.029092105105519295,-0.005616340320557356,0.08294495195150375
1762361561869838600,3.919838623046875,0.023541012778878212,-0.035226430743932724,0.06583493947982788
1762361561879816000,3.92981591796875,0.01611878164112568,-0.039508260786533356,0.056657686829566956
1762361561889792800,3.939792724609375,0.008656338788568974,-0.03197231516242027,0.07264357805252075
1762361561899769900,3.949769775390625,0.005455751903355122,-0.01031708624213934,0.11229884624481201
1762361561909747000,3.959746826171875,0.0011984225129708648,0.007932225242257118,0.14853328466415405
1762361561919723800,3.969723876953125,0.00261868629604578,-0.006078132428228855,0.16008687019348145
1762361561929700900,3.979700927734375,0.008941829204559326,-0.04614059627056122,0.1467292606830597
1762361561939677700,3.989677734375,0.02262089028954506,-0.08794716745615005,0.12019644677639008
1762361561949655800,3.99965576171875,0.03188229724764824,-0.10633815824985504,0.08962415903806686
1762361561959633000,4.0096328125,0.029400765895843506,-0.08300300687551498,0.049900978803634644
1762361561969609700,4.019609619140625,0.024027837440371513,-0.048900164663791656,0.011861452832818031
1762361561979586800,4.0295869140625,0.02197027951478958,0.002956907730549574,-0.016920126974582672
1762361561989563600,4.039563720703125,0.01230327133089304,0.04922240599989891,-0.029209550470113754
1762361561999540700,4.049540771484375,0.006104497704654932,0.07767162472009659,-0.025015603750944138
1762361562009517600,4.059517578125,0.0005691175465472043,0.0984882265329361,-0.014063887298107147
1762361562019494700,4.06949462890625,-0.004200603812932968,0.10321533679962158,0.0033036512322723866
1762361562029472000,4.079471923828125,-0.010357832536101341,0.08573354780673981,0.014255101792514324
1762361562039448800,4.08944873046875,-0.013219133019447327,0.04651343822479248,0.014282532967627048
1762361562049426700,4.0994267578125,-0.01085957232862711,0.00993359088897705,0.0016823188634589314
1762361562059403800,4.10940380859375,-0.0032402679789811373,-0.03556118905544281,-0.009033708833158016
1762361562069380900,4.119380859375,0.007493336219340563,-0.06695586442947388,-0.010015882551670074
1762361562079358000,4.12935791015625,0.014627944678068161,-0.06498964875936508,0.0012117383303120732
1762361562089334800,4.139334716796875,0.014609835110604763,-0.060199957340955734,0.018812038004398346
1762361562099311900,4.149311767578125,0.012631106190383434,-0.058872636407613754,0.03562803566455841
1762361562109288700,4.159288818359375,0.008412925526499748,-0.055624645203351974,0.057256896048784256
1762361562119265800,4.169265869140625,0.005927131045609713,-0.06469004601240158,0.08794130384922028
1762361562129243000,4.179242919921875,0.004224838688969612,-0.06765308231115341,0.12199275195598602
1762361562139219700,4.1892197265625,0.003154247999191284,-0.07848575711250305,0.1390199363231659
1762361562149196800,4.19919677734375,0.004363056737929583,-0.1020808294415474,0.14778253436088562
1762361562159174700,4.209174560546875,0.006323409732431173,-0.12062761187553406,0.14328525960445404
1762361562169151700,4.21915185546875,0.003915112931281328,-0.13500894606113434,0.1400119662284851
1762361562179128800,4.22912890625,-0.0008098672842606902,-0.1466035544872284,0.13152074813842773
1762361562189105700,4.239105712890625,0.0018077536951750517,-0.15045687556266785,0.12495552003383636
1762361562199082800,4.249082763671875,0.007447530049830675,-0.1442064493894577,0.12175839394330978
1762361562209059800,4.259059814453125,0.01113600842654705,-0.12485777586698532,0.11472125351428986
1762361562219037000,4.269036865234375,0.011839082464575768,-0.1020057275891304,0.10592377185821533
1762361562229013800,4.279013671875,0.013047358952462673,-0.08520783483982086,0.09533291310071945
1762361562238990800,4.288990966796875,0.014373612590134144,-0.07270243018865585,0.0798594132065773
1762361562248968000,4.298968017578125,0.01840856857597828,-0.058995943516492844,0.06166736036539078
1762361562258945800,4.30894580078125,0.015837818384170532,-0.06000155210494995,0.04107579588890076
1762361562268923000,4.3189228515625,0.011580223217606544,-0.0570550300180912,0.025736521929502487
1762361562278899700,4.328899658203125,0.010122142732143402,-0.03918042406439781,0.014426076784729958
1762361562288876800,4.338876708984375,0.006912766955792904,-0.025164475664496422,0.013426858931779861
1762361562298854000,4.34885400390625,0.0022447784431278706,0.010416688397526741,0.02280944213271141
1762361562308830700,4.358830810546875,-0.004022704903036356,0.0330871120095253,0.03208150342106819
1762361562318807800,4.368807861328125,-0.0023220102302730083,0.0441695898771286,0.04056180641055107
1762361562328784600,4.37878466796875,-0.0011696603614836931,0.04554458335042,0.05357587710022926
1762361562338761700,4.38876171875,0.003153715282678604,0.023695209994912148,0.07246940582990646
1762361562348738600,4.398738525390625,0.010978082194924355,-0.000642354425508529,0.08199180662631989
1762361562358715600,4.408715576171875,0.011301656253635883,-0.009680590592324734,0.07204809784889221
1762361562368693800,4.41869384765625,0.011947473511099815,-0.0008103998843580484,0.05494660511612892
1762361562378670600,4.428670654296875,0.011185809038579464,0.017136376351118088,0.0448409728705883
1762361562388647700,4.438647705078125,0.01625833287835121,0.025306155905127525,0.03515159711241722
1762361562398625000,4.448625,0.020025106146931648,0.011347996070981026,0.024808943271636963
1762361562408601900,4.458601806640625,0.023969247937202454,-0.009186041541397572,0.005966546013951302
1762361562418579000,4.468578857421875,0.02015107497572899,-0.0331433042883873,-0.008143413811922073
1762361562428555800,4.4785556640625,0.019992083311080933,-0.03375290334224701,-0.012594355270266533
1762361562438532900,4.488532958984375,0.013935523107647896,-0.009611614979803562,-0.011402590200304985
1762361562448509700,4.498509765625,0.00911413598805666,0.028126176446676254,-0.00965875294059515
1762361562458486800,4.50848681640625,0.010132262483239174,0.057430002838373184,0.00012170646368758753
1762361562468465000,4.51846484375,0.014670821838080883,0.06742937117815018,0.015538479201495647
1762361562478441700,4.528441650390625,0.018618691712617874,0.058650530874729156,0.03181784972548485
1762361562488418800,4.538418701171875,0.021343104541301727,0.040822532027959824,0.03580140694975853
1762361562498395600,4.548395751953125,0.020379839465022087,0.0309243593364954,0.027699271216988564
1762361562508372700,4.558372802734375,0.02202567271888256,0.013765613548457623,0.020109795033931732
1762361562518349800,4.568349853515625,0.018694592639803886,0.006573746912181377,0.009827863425016403
1762361562528326700,4.57832666015625,0.016019713133573532,0.007228618022054434,0.010663829743862152
1762361562538303700,4.5883037109375,0.011961587704718113,0.015914518386125565,0.018755843862891197
1762361562548280800,4.59828076171875,0.009699499234557152,0.020917799323797226,0.025315742939710617
1762361562558258000,4.6082578125,0.004314853344112635,0.016834374517202377,0.022951655089855194
1762361562568234800,4.61823486328125,0.0038541266694664955,0.011447598226368427,0.012418853119015694
1762361562578212900,4.628212890625,-0.0005408879951573908,0.004563592839986086,0.00481206551194191
1762361562588190000,4.63818994140625,-0.00905847642570734,-0.014328339137136936,0.0021901836153119802
1762361562598166800,4.648166748046875,-0.0041406829841434956,-0.04027818143367767,0.010431068949401379
1762361562608144000,4.658143798828125,0.004938832018524408,-0.0498754158616066,0.033186182379722595
1762361562618120700,4.66812060546875,0.004987301770597696,-0.04675765335559845,0.056648366153240204
1762361562628097800,4.678097900390625,0.00395799009129405,-0.04200577363371849,0.06434649974107742
1762361562638075000,4.688074951171875,0.004963599611073732,-0.04602315276861191,0.05263791233301163
1762361562648051700,4.6980517578125,0.004099670331925154,-0.05952804163098335,0.03411402925848961
1762361562658028800,4.70802880859375,0.001588841900229454,-0.07134448736906052,0.014788267202675343
1762361562668005600,4.718005615234375,-0.00030546457855962217,-0.07801703363656998,0.007707454264163971
1762361562677982700,4.727982666015625,0.0006769755273126066,-0.0799744576215744,0.013729927130043507
1762361562687959600,4.73795947265625,-0.002127865795046091,-0.08836527913808823,0.02352716401219368
1762361562697937700,4.747937744140625,-0.00227939966134727,-0.08270180225372314,0.039688289165496826
1762361562707914800,4.757914794921875,-0.0033814155030995607,-0.06217043101787567,0.0503087118268013
1762361562717891600,4.7678916015625,-0.006340720225125551,-0.04531901329755783,0.05711894482374191
1762361562727868700,4.77786865234375,-0.004293548408895731,-0.03374651074409485,0.05567790940403938
1762361562737846000,4.787845947265625,-0.006087187211960554,-0.04060255363583565,0.05193004384636879
1762361562747822800,4.79782275390625,-0.003959854133427143,-0.05837462469935417,0.05592132359743118
1762361562757800000,4.807800048828125,-0.00561101408675313,-0.07828521728515625,0.06575211882591248
1762361562767776800,4.81777685546875,-0.0009518137667328119,-0.07511711865663528,0.06330201029777527
1762361562777753900,4.82775390625,0.006730340886861086,-0.05223257839679718,0.05269543454051018
1762361562787730700,4.837730712890625,0.009445699863135815,-0.030461236834526062,0.04259193316102028
1762361562797707800,4.847707763671875,0.008150071837008,-0.020363062620162964,0.030172282829880714
1762361562807686000,4.857685791015625,0.007552724797278643,-0.02924097515642643,0.015179751440882683
1762361562817662700,4.867662841796875,0.004457599017769098,-0.037754569202661514,0.00455800024792552
1762361562827640600,4.877640625,0.0016642092959955335,-0.03912636265158653,0.01050270814448595
1762361562837617700,4.88761767578125,-0.000018908443962573074,-0.026433205232024193,0.03596785292029381
1762361562847594500,4.897594482421875,-0.0016018913593143225,-0.007404919248074293,0.05807475373148918
1762361562857571600,4.907571533203125,-0.002993126632645726,0.009909622371196747,0.07296768575906754
1762361562867548400,4.91754833984375,-0.007161506451666355,0.012210327200591564,0.06995458155870438
1762361562877525500,4.927525390625,-0.01458906289190054,0.0044317664578557014,0.05594582483172417
1762361562887502600,4.937502685546875,-0.02058730088174343,-0.01660534180700779,0.04643940553069115
1762361562897479400,4.9474794921875,-0.02846280112862587,-0.0602516233921051,0.04671530798077583
1762361562907456500,4.95745654296875,-0.029027923941612244,-0.10089172422885895,0.04884237423539162
1762361562917434600,4.9674345703125,-0.03820837289094925,-0.11181654781103134,0.05498122796416283
1762361562927411500,4.977411376953125,-0.03230307996273041,-0.0827673152089119,0.07118336856365204
1762361562937388500,4.987388427734375,-0.03063700534403324,-0.03904327377676964,0.09744533151388168
1762361562947365600,4.99736572265625,-0.028240958228707314,-0.0008474178612232208,0.11740598827600479
1762361562957342700,5.0073427734375,-0.02516074664890766,0.012465724721550941,0.11360912024974823
1762361562967319600,5.017319580078125,-0.024284834042191505,0.00015526228526141495,0.0899815559387207
1762361562977296600,5.027296630859375,-0.021312478929758072,-0.015663914382457733,0.05578630045056343
1762361562987273500,5.0372734375,-0.016103336587548256,-0.01901204138994217,0.032286033034324646
1762361562997250600,5.04725048828125,-0.016805078834295273,-0.01828606240451336,0.022231269627809525
1762361563007227600,5.0572275390625,-0.016879914328455925,-0.030520092695951462,0.013496100902557373
1762361563017204500,5.06720458984375,-0.020257601514458656,-0.05368666350841522,0.0104752779006958
1762361563027181600,5.077181640625,-0.026819629594683647,-0.07566626369953156,0.017351027578115463
1762361563037159700,5.08715966796875,-0.02532319910824299,-0.07222652435302734,0.03935406357049942
1762361563047136500,5.097136474609375,-0.020124442875385284,-0.050459712743759155,0.0666450709104538
1762361563057113600,5.107113525390625,-0.018366223201155663,-0.012492622248828411,0.07385504990816116
1762361563067090400,5.11709033203125,-0.020260263234376907,0.00717642018571496,0.05163896083831787
1762361563077067500,5.127067626953125,-0.025649171322584152,0.009315204806625843,0.015496933832764626
1762361563087044400,5.13704443359375,-0.029743248596787453,0.008535165339708328,-0.016262326389551163
1762361563097021700,5.147021728515625,-0.03447328880429268,-0.000313986703986302,-0.02923671528697014
1762361563106998800,5.156998779296875,-0.028089424595236778,-0.0065649584867060184,-0.015052985399961472
1762361563116975600,5.1669755859375,-0.020130569115281105,-0.0073103769682347775,-0.0013281183782964945
1762361563126952700,5.17695263671875,-0.012823120690882206,-0.0059782639145851135,0.009216135367751122
1762361563136929500,5.186929443359375,-0.008982841856777668,-0.009169263765215874,0.007017429452389479
1762361563146907600,5.19690771484375,-0.008256864733994007,-0.019841615110635757,-0.003500725142657757
1762361563156884700,5.206884765625,-0.0070435283705592155,-0.040168989449739456,-0.014741395600140095
1762361563166861600,5.216861572265625,-0.004244545940309763,-0.05343872308731079,-0.016715064644813538
1762361563176838700,5.226838623046875,-0.005998237524181604,-0.05260195955634117,-0.015110775828361511
1762361563186815500,5.2368154296875,-0.005298625212162733,-0.04940163716673851,-0.019454924389719963
1762361563196792600,5.24679248046875,-0.004968126770108938,-0.05481690913438797,-0.03248497098684311
1762361563206769400,5.256769287109375,0.001041295938193798,-0.04981416091322899,-0.04573632776737213
1762361563216746500,5.26674658203125,0.001600559800863266,-0.049849580973386765,-0.04445534944534302
1762361563226723600,5.2767236328125,0.004163586068898439,-0.043664656579494476,-0.0350666418671608
1762361563236700400,5.286700439453125,0.004006193019449711,-0.04055594652891159,-0.01564820110797882
1762361563246677800,5.296677734375,0.004496747627854347,-0.03894606605172157,-0.0033334787003695965
1762361563256654600,5.306654541015625,0.007284810766577721,-0.0424201600253582,0.006768157705664635
1762361563266632400,5.316632568359375,0.011933624744415283,-0.039321038872003555,0.015393869951367378
1762361563276609500,5.326609619140625,0.009471000172197819,-0.03704670071601868,0.014308897778391838
1762361563286586600,5.336586669921875,0.008530637249350548,-0.0494152195751667,0.0026373283471912146
1762361563296563700,5.346563720703125,-0.0005411543534137309,-0.07958058267831802,-0.01257837563753128
1762361563306540500,5.35654052734375,-0.011376491747796535,-0.10175912082195282,-0.022042984142899513
1762361563316517600,5.366517578125,-0.02238413505256176,-0.10092528164386749,-0.01877821423113346
1762361563326494500,5.376494384765625,-0.03080744668841362,-0.0880369171500206,-0.007420099340379238
1762361563336471600,5.386471435546875,-0.031010380014777184,-0.0745389461517334,0.0032674323301762342
1762361563346448600,5.39644873046875,-0.030055902898311615,-0.0537247471511364,0.010153833776712418
1762361563356425500,5.406425537109375,-0.024588434025645256,-0.024996696040034294,0.007014233618974686
1762361563366402600,5.416402587890625,-0.019529493525624275,-0.011579157784581184,-0.00675297761335969
1762361563376379400,5.42637939453125,-0.01101376861333847,-0.0075788237154483795,-0.01895105466246605
1762361563386357500,5.436357421875,-0.000937166390940547,-0.0022972426377236843,-0.02786944806575775
1762361563396334600,5.44633447265625,0.008328237570822239,-0.009867544285953045,-0.021447502076625824
1762361563406311400,5.4563115234375,0.014134993776679039,-0.026086993515491486,-0.009808954782783985
1762361563416288500,5.46628857421875,0.019773704931139946,-0.04411659389734268,0.001160072977654636
1762361563426265600,5.476265625,0.019822174683213234,-0.05343126505613327,0.008508799597620964
1762361563436242700,5.48624267578125,0.02143098972737789,-0.05620867758989334,0.014412228949368
1762361563446219800,5.4962197265625,0.024824123829603195,-0.061282265931367874,0.021689582616090775
1762361563456196600,5.506196533203125,0.027876637876033783,-0.07168750464916229,0.024166056886315346
1762361563466173700,5.516173583984375,0.029864421114325523,-0.06306285411119461,0.01727193035185337
1762361563476150500,5.526150634765625,0.030614368617534637,-0.044439371675252914,0.006129265297204256
1762361563486127600,5.536127685546875,0.026803651824593544,-0.04007977619767189,-0.0070070428773760796
1762361563496104400,5.5461044921875,0.025787655264139175,-0.044195957481861115,-0.018365956842899323
1762361563506082600,5.55608251953125,0.024264059960842133,-0.051185157150030136,-0.025963157415390015
1762361563516059600,5.5660595703125,0.027691282331943512,-0.05721242353320122,-0.024637702852487564
1762361563526036500,5.576036376953125,0.024520257487893105,-0.05122377350926399,-0.02063843235373497
1762361563536013600,5.586013671875,0.027032416313886642,-0.04177035018801689,-0.009708553552627563
1762361563545990400,5.595990478515625,0.028800489380955696,-0.03747227415442467,0.0002772350562736392
1762361563555967500,5.605967529296875,0.030842866748571396,-0.04267982020974159,0.008315454237163067
1762361563565944600,5.615944580078125,0.03178775683045387,-0.05486777424812317,0.00720411678776145
1762361563575921400,5.62592138671875,0.030970698222517967,-0.0659760907292366,-0.0012692625168710947
1762361563585898800,5.635898681640625,0.02677249163389206,-0.08351939171552658,-0.0131522873416543
1762361563595875600,5.64587548828125,0.024569524452090263,-0.10832034796476364,-0.02196335606276989
1762361563605852700,5.655852783203125,0.024827584624290466,-0.1182107925415039,-0.020124709233641624
1762361563615829500,5.66582958984375,0.02646729350090027,-0.13030873239040375,-0.010764497332274914
1762361563625807600,5.6758076171875,0.03394145518541336,-0.13876773416996002,0.0004522047529462725
1762361563635784700,5.68578466796875,0.036016590893268585,-0.12618057429790497,0.008133560419082642
1762361563645761500,5.695761474609375,0.03377633914351463,-0.11184290796518326,0.013708088546991348
1762361563655738600,5.705738525390625,0.03256566449999809,-0.10364197194576263,0.008731706067919731
1762361563665715500,5.715715576171875,0.02985536679625511,-0.09676382690668106,-0.0075426045805215836
1762361563675692500,5.725692626953125,0.02539830096065998,-0.10678104311227798,-0.02155243046581745
1762361563685669600,5.735669677734375,0.024353010579943657,-0.11299366503953934,-0.028596490621566772
1762361563695646500,5.745646484375,0.022724220529198647,-0.12294403463602066,-0.024326644837856293
1762361563705623600,5.75562353515625,0.024289892986416817,-0.1206451877951622,-0.009756224229931831
1762361563715600400,5.765600341796875,0.027526699006557465,-0.09988106042146683,0.0015105449128895998
1762361563725577500,5.775577392578125,0.028655346482992172,-0.09461039304733276,0.0032266860362142324
1762361563735554600,5.785554443359375,0.028019916266202927,-0.09548604488372803,0.0005254416610114276
1762361563745531600,5.79553173828125,0.026729349046945572,-0.08715380728244781,-0.003353186184540391
1762361563755509500,5.805509521484375,0.02431732416152954,-0.07788893580436707,-0.003932689782232046
1762361563765486600,5.815486572265625,0.02508644387125969,-0.07502710819244385,-0.004858937580138445
1762361563775463700,5.825463623046875,0.025012409314513206,-0.0726691409945488,-0.006390254944562912
1762361563785440800,5.835440673828125,0.021287178620696068,-0.0779789537191391,-0.0032200280111283064
1762361563795417600,5.84541748046875,0.02070048451423645,-0.08123093843460083,0.006944991648197174
1762361563805394700,5.855394775390625,0.019348131492733955,-0.0805869847536087,0.01696486957371235
1762361563815371500,5.86537158203125,0.016943030059337616,-0.08315986394882202,0.02401079423725605
1762361563825347800,5.875347900390625,0.019768910482525826,-0.0945078656077385,0.02610616944730282
1762361563835325000,5.885324951171875,0.020370252430438995,-0.10699808597564697,0.029884396120905876
1762361563845301800,5.8953017578125,0.021829398348927498,-0.11501739919185638,0.030703583732247353
1762361563855278800,5.90527880859375,0.023538881912827492,-0.1266956329345703,0.02304806187748909
1762361563865256000,5.915255859375,0.02377030998468399,-0.14970827102661133,0.011422830633819103
1762361563875233800,5.92523388671875,0.024275777861475945,-0.1624850481748581,0.0025835325941443443
1762361563885211000,5.9352109375,0.020265590399503708,-0.16436924040317535,0.005154015496373177
1762361563895188000,5.94518798828125,0.015264173969626427,-0.17401760816574097,0.00606481684371829
1762361563905165000,5.9551650390625,0.009676596149802208,-0.17938493192195892,0.007635016459971666
1762361563915142100,5.96514208984375,0.010071275755763054,-0.17276085913181305,0.009159409441053867
1762361563925119000,5.975118896484375,0.011331750079989433,-0.15053758025169373,0.01450117863714695
1762361563935096000,5.985095947265625,0.013450561091303825,-0.12075038254261017,0.015849269926548004
1762361563945073000,5.995072998046875,0.014062555506825447,-0.09576966613531113,0.014004232361912727
1762361563955050000,6.005050048828125,0.016292687505483627,-0.08125943690538406,0.012410863302648067
1762361563965026800,6.01502685546875,0.02255883812904358,-0.07776296883821487,0.010970093309879303
1762361563975004000,6.02500390625,0.028089424595236778,-0.0688786655664444,0.008471515029668808
1762361563984981000,6.03498095703125,0.03417101874947548,-0.05634103715419769,0.013191169127821922
1762361563994957800,6.044957763671875,0.04218047484755516,-0.045892924070358276,0.018801916390657425
1762361564004936000,6.05493603515625,0.047147005796432495,-0.04410967230796814,0.01805197075009346
1762361564014912800,6.064912841796875,0.047802142798900604,-0.05190900340676308,0.007664843928068876
1762361564024889900,6.074889892578125,0.04878778010606766,-0.0618673637509346,-0.0075695025734603405
1762361564034867000,6.084866943359375,0.04404069483280182,-0.07451284676790237,-0.01937023550271988
1762361564044844000,6.094843994140625,0.03815404325723648,-0.07695683091878891,-0.02846546284854412
1762361564054821000,6.104821044921875,0.03167111054062843,-0.07810758799314499,-0.03062209114432335
1762361564064798000,6.1147978515625,0.01799098402261734,-0.08302218466997147,-0.02695971168577671
1762361564074775000,6.124775146484375,0.00890854001045227,-0.08490770310163498,-0.013137373141944408
1762361564084752000,6.134751953125,0.00018482338055036962,-0.0955776572227478,0.001948634977452457
1762361564094729000,6.14472900390625,-0.007583084981888533,-0.10167443007230759,0.015574431978166103
1762361564104706000,6.1547060546875,-0.012660933658480644,-0.10805056989192963,0.02292955107986927
1762361564114683000,6.164682861328125,-0.02028662897646427,-0.11859509348869324,0.022296249866485596
1762361564124661000,6.174660888671875,-0.022880814969539642,-0.13493119180202484,0.022605443373322487
1762361564134637800,6.184637939453125,-0.022113557904958725,-0.15384629368782043,0.0184695553034544
1762361564144615000,6.194614990234375,-0.020297015085816383,-0.17526875436306,0.009524528868496418
1762361564154592000,6.204592041015625,-0.015562980435788631,-0.18307794630527496,-0.0004703142330981791
1762361564164568800,6.21456884765625,-0.018425079062581062,-0.1971958875656128,-0.0038394792936742306
1762361564174546000,6.2245458984375,-0.026568492874503136,-0.20227880775928497,-0.0011653993278741837
1762361564184522800,6.234522705078125,-0.02574717439711094,-0.21655866503715515,-0.0034591800067573786
1762361564194500000,6.2445,-0.02388775534927845,-0.23422208428382874,0.0004519384237937629
1762361564204477000,6.254476806640625,-0.022397717460989952,-0.22866061329841614,0.005081044975668192
1762361564214454000,6.2644541015625,-0.024163126945495605,-0.2196793556213379,0.00815193634480238
1762361564224431000,6.27443115234375,-0.018622953444719315,-0.20121194422245026,0.017017599195241928
1762361564234408000,6.284407958984375,-0.010998056270182133,-0.16569681465625763,0.024686703458428383
1762361564244385000,6.294385009765625,-0.005723399575799704,-0.12241806089878082,0.02195829525589943
1762361564254363100,6.304363037109375,-0.0012737899087369442,-0.09749406576156616,0.003177417442202568
1762361564264340000,6.314340087890625,0.00202240445651114,-0.0988307073712349,-0.026427878066897392
1762361564274317000,6.324317138671875,0.007576959673315287,-0.1035948321223259,-0.05150926485657692
1762361564284294000,6.3342939453125,0.010017747059464455,-0.11981428414583206,-0.06636224687099457
1762361564294271000,6.34427099609375,0.01028406247496605,-0.15344175696372986,-0.07386650145053864
1762361564304247800,6.354247802734375,0.015808790922164917,-0.1829967200756073,-0.06925869733095169
1762361564314225000,6.364224853515625,0.02231675758957863,-0.19375082850456238,-0.0542035847902298
1762361564324202000,6.374201904296875,0.023477628827095032,-0.1796424686908722,-0.03526797518134117
1762361564334178800,6.3841787109375,0.02557220496237278,-0.16576819121837616,-0.006929278839379549
1762361564344156000,6.394156005859375,0.018497517332434654,-0.1663663387298584,0.01901683397591114
1762361564354133000,6.404133056640625,0.010439591482281685,-0.1773926317691803,0.0315864235162735
1762361564364110000,6.414110107421875,0.007456318475306034,-0.19343231618404388,0.035476233810186386
1762361564374087000,6.4240869140625,0.006464557256549597,-0.20548924803733826,0.03303012251853943
1762361564384065000,6.43406494140625,0.012148541398346424,-0.21572722494602203,0.03257152438163757
1762361564394042000,6.4440419921875,0.01714303344488144,-0.22779108583927155,0.03876364231109619
1762361564404019000,6.45401904296875,0.024939171969890594,-0.22551435232162476,0.03873168304562569
1762361564413996000,6.46399609375,0.0243772454559803,-0.22091905772686005,0.037693049758672714
1762361564423972900,6.473972900390625,0.022008629515767097,-0.22462165355682373,0.04253973811864853
1762361564433950000,6.483949951171875,0.01984880492091179,-0.23982883989810944,0.04777684435248375
1762361564443927000,6.493927001953125,0.02056919038295746,-0.2643786668777466,0.051414988934993744
1762361564453904000,6.50390380859375,0.021313278004527092,-0.27509281039237976,0.05904148146510124
1762361564463881000,6.513880859375,0.02196229062974453,-0.27721962332725525,0.06788317859172821
1762361564473857800,6.52385791015625,0.022657908499240875,-0.2728198170661926,0.07498928904533386
1762361564483835000,6.5338349609375,0.02532346546649933,-0.26766127347946167,0.07499194890260696
1762361564493812000,6.54381201171875,0.0247905682772398,-0.2692498564720154,0.0747930109500885
1762361564503789000,6.5537890625,0.021624602377414703,-0.2708384096622467,0.0658397302031517
1762361564513767000,6.563766845703125,0.014650048688054085,-0.25648796558380127,0.058820974081754684
1762361564523743700,6.57374365234375,0.012265721336007118,-0.24576608836650848,0.05299610644578934
1762361564533721000,6.58372119140625,0.014154435135424137,-0.24123631417751312,0.044436972588300705
1762361564543698000,6.593697998046875,0.01787726767361164,-0.22686004638671875,0.03912955895066261
1762361564553675000,6.603675048828125,0.022839002311229706,-0.20557473599910736,0.03284449875354767
1762361564563652000,6.613652099609375,0.025584455579519272,-0.19125624001026154,0.023302659392356873
1762361564573629000,6.62362890625,0.022239258512854576,-0.1791047751903534,0.016472715884447098
1762361564583606000,6.63360595703125,0.020929250866174698,-0.1736101359128952,0.009193498641252518
1762361564593582800,6.643582763671875,0.01949194259941578,-0.1737813800573349,0.0004138552176300436
1762361564603560000,6.653559814453125,0.02087891660630703,-0.17425942420959473,-0.007032875902950764
1762361564613536800,6.663536865234375,0.020417656749486923,-0.17414037883281708,-0.011317902244627476
1762361564623513900,6.673513916015625,0.022951122373342514,-0.1643844097852707,-0.008069378323853016
1762361564633491000,6.683490966796875,0.02448723278939724,-0.14259390532970428,-0.002633866388350725
1762361564643467800,6.6934677734375,0.026812972500920296,-0.12019911408424377,0.00310524576343596
1762361564653446000,6.70344580078125,0.023864585906267166,-0.09233126044273376,0.0010042780777439475
1762361564663423000,6.713423095703125,0.02093537524342537,-0.07286222279071808,0.0019017633749172091
1762361564673399800,6.72339990234375,0.01709270104765892,-0.05985694006085396,0.002168079372495413
1762361564683377200,6.733377197265625,0.013302755542099476,-0.05837595835328102,0.004108458757400513
1762361564693354000,6.74335400390625,0.010301372967660427,-0.07260043174028397,0.008933307603001595
1762361564703331000,6.7533310546875,0.008153000846505165,-0.08883026987314224,0.012695555575191975
1762361564713308000,6.763307861328125,0.006737531162798405,-0.09840752929449081,0.013857492245733738
1762361564723285000,6.773284912109375,0.01127822045236826,-0.10854298621416092,0.011012704111635685
1762361564733262000,6.783261962890625,0.015841014683246613,-0.11799001693725586,0.01233309879899025
1762361564743239000,6.793239013671875,0.014733672142028809,-0.11642434448003769,0.02041046693921089
1762361564753216000,6.803216064453125,0.01088753528892994,-0.11398808658123016,0.02841086871922016
1762361564763192800,6.81319287109375,0.005034439731389284,-0.11673273891210556,0.026738137006759644
1762361564773170000,6.823169921875,0.00315984059125185,-0.12326574325561523,0.02352876216173172
1762361564783148000,6.83314794921875,0.006593720521777868,-0.13315965235233307,0.020840566605329514
1762361564793124900,6.843124755859375,0.01383858360350132,-0.12025344371795654,0.015460981987416744
1762361564803102000,6.85310205078125,0.01739550195634365,-0.08882787078619003,0.005979329347610474
1762361564813078800,6.863078857421875,0.02063577063381672,-0.054309312254190445,-0.008561796508729458
1762361564823056000,6.873055908203125,0.024020381271839142,-0.02015826478600502,-0.033603500574827194
1762361564833033000,6.883032958984375,0.02859116531908512,-0.0012008192716166377,-0.05524168536067009
1762361564843010300,6.89301025390625,0.02870381623506546,-0.01224761176854372,-0.0672307014465332
1762361564852987100,6.902987060546875,0.029150428250432014,-0.03935965523123741,-0.06641843914985657
1762361564862964200,6.912964111328125,0.03594361990690231,-0.06675293296575546,-0.04945436865091324
1762361564872941300,6.92294140625,0.045154161751270294,-0.08293270319700241,-0.026450516656041145
1762361564882918100,6.932918212890625,0.05410771071910858,-0.0898478627204895,0.00031079089967533946
1762361564892895200,6.942895263671875,0.059115249663591385,-0.07949509471654892,0.020264258608222008
1762361564902872000,6.9528720703125,0.05513675510883331,-0.07743992656469345,0.02479775808751583
1762361564912849200,6.96284912109375,0.04405001550912857,-0.08903506398200989,0.020180102437734604
1762361564922827300,6.9728271484375,0.029170667752623558,-0.11256729066371918,0.013604225590825081
1762361564932804000,6.98280419921875,0.0148074422031641,-0.15038178861141205,0.0076275598257780075
1762361564942781200,6.99278125,-0.003962250892072916,-0.18402177095413208,0.00845633540302515
1762361564952758000,7.002758056640625,-0.020607806742191315,-0.21788039803504944,0.01846316270530224
1762361564962735000,7.012735107421875,-0.028059864416718483,-0.24548672139644623,0.03303518146276474
1762361564972712000,7.0227119140625,-0.03008466586470604,-0.2614419758319855,0.05817515403032303
1762361564982689000,7.03268896484375,-0.028086230158805847,-0.26033225655555725,0.07432109862565994
1762361564992666400,7.042666259765625,-0.023505859076976776,-0.25020265579223633,0.07262387126684189
1762361565002643200,7.052643310546875,-0.0193175058811903,-0.2429782897233963,0.06300852447748184
1762361565012620300,7.062620361328125,-0.01278849970549345,-0.23314882814884186,0.05108289048075676
1762361565022597000,7.07259716796875,-0.0015419702976942062,-0.19944892823696136,0.02702229656279087
1762361565032574200,7.08257421875,0.022487198933959007,-0.171384796500206,-0.009770605713129044
1762361565042551000,7.092551025390625,0.05859700217843056,-0.14019624888896942,-0.05415618047118187
1762361565052528000,7.102528076171875,0.09091898798942566,-0.12196425348520279,-0.08687417954206467
1762361565062505200,7.112505126953125,0.11034435033798218,-0.1054486632347107,-0.10462627559900284
1762361565072483000,7.122483154296875,0.11692608892917633,-0.09383434802293777,-0.09759766608476639
1762361565082460200,7.132460205078125,0.1212444007396698,-0.0889517068862915,-0.0800948366522789
1762361565092437200,7.142437255859375,0.12109419703483582,-0.0834038108587265,-0.06356912106275558
1762361565102414000,7.1524140625,0.11636175960302353,-0.07065153121948242,-0.052265334874391556
1762361565112391200,7.16239111328125,0.10352718830108643,-0.05347947031259537,-0.04874676838517189
1762361565122368000,7.172367919921875,0.08691439032554626,-0.039313316345214844,-0.049857571721076965
1762361565132345000,7.182344970703125,0.06538033485412598,-0.049738794565200806,-0.060859888792037964
1762361565142322200,7.192322265625,0.04086008295416832,-0.07696695625782013,-0.0723588839173317
1762361565152299300,7.20229931640625,0.016895625740289688,-0.09837104380130768,-0.07962691783905029
1762361565162276400,7.2122763671875,0.00230842805467546,-0.11222267895936966,-0.08198487758636475
1762361565172253200,7.222253173828125,-0.008423046208918095,-0.11521793156862259,-0.0801297202706337
1762361565182230300,7.232230224609375,-0.015218634158372879,-0.11060240864753723,-0.07474188506603241
1762361565192207000,7.24220703125,-0.01543355081230402,-0.09884774684906006,-0.06936788558959961
1762361565202184200,7.25218408203125,-0.012961338274180889,-0.09415233135223389,-0.06597315520048141
1762361565212162300,7.262162353515625,-0.009324791841208935,-0.09842883795499802,-0.06722244620323181
1762361565222139100,7.27213916015625,-0.010053698904812336,-0.10999467968940735,-0.07040838897228241
1762361565232116200,7.2821162109375,-0.012022840790450573,-0.1294991374015808,-0.06637635827064514
1762361565242093000,7.292093017578125,-0.014109959825873375,-0.14269722998142242,-0.049796849489212036
1762361565252070100,7.302070068359375,-0.013921674340963364,-0.1578809767961502,-0.02984684519469738
1762361565262047000,7.312046875,-0.016145946457982063,-0.15677016973495483,-0.00987313687801361
1762361565272024000,7.322024169921875,-0.013308614492416382,-0.14192518591880798,0.007819040678441525
1762361565282001200,7.332001220703125,-0.010027067735791206,-0.11817777156829834,0.017960092052817345
1762361565291978200,7.341978271484375,-0.009423329494893551,-0.10002193599939346,0.017679927870631218
1762361565301955300,7.351955322265625,-0.01085903961211443,-0.08789470046758652,0.013085441663861275
1762361565311932200,7.36193212890625,-0.004624579101800919,-0.0796990916132927,0.008607602678239346
1762361565321909200,7.3719091796875,-0.00031611722079105675,-0.08531729131937027,0.0031886028591543436
1762361565331886000,7.381885986328125,0.0026487798895686865,-0.10356979817152023,-0.003925499506294727
1762361565341863200,7.39186328125,0.0022085595410317183,-0.1291518658399582,-0.001883121207356453
1762361565351840300,7.40184033203125,-0.0049438923597335815,-0.14647066593170166,0.00010652644414221868
1762361565361817000,7.411817138671875,-0.005583317019045353,-0.14812502264976501,0.0037028591614216566
1762361565371795200,7.421795166015625,-0.004559331573545933,-0.14489486813545227,0.001752093667164445
1762361565381772000,7.43177197265625,-0.0023102923296391964,-0.1264503449201584,0.005517270881682634
1762361565391749000,7.4417490234375,-0.0005049353349022567,-0.10826361924409866,0.012199408374726772
1762361565401726200,7.451726318359375,-0.0024588967207819223,-0.10283130407333374,0.015720905736088753
1762361565411703000,7.461703125,-0.004278368316590786,-0.10069252550601959,0.009122658520936966
1762361565421680000,7.47168017578125,-0.00746271014213562,-0.10029198229312897,-0.005191565956920385
1762361565431657000,7.481656982421875,-0.004583832807838917,-0.10283610224723816,-0.016322247684001923
1762361565441634300,7.49163427734375,0.007369499187916517,-0.09944775700569153,-0.020674651488661766
1762361565451611100,7.501611083984375,0.02021232806146145,-0.09702961146831512,-0.026129871606826782
1762361565461588200,7.511588134765625,0.021807560697197914,-0.10447128117084503,-0.032701753079891205
1762361565471565300,7.5215654296875,0.01991511881351471,-0.12334270775318146,-0.038783349096775055
1762361565481542100,7.531542236328125,0.017369668930768967,-0.14465971291065216,-0.048224519938230515
1762361565491519200,7.541519287109375,0.01703624054789543,-0.1579294502735138,-0.046789076179265976
1762361565501496000,7.55149609375,0.01871696300804615,-0.14616093039512634,-0.03351694718003273
1762361565511473200,7.56147314453125,0.0172016229480505,-0.13187147676944733,-0.01404710952192545
1762361565521451300,7.571451171875,0.015173359774053097,-0.12837980687618256,-0.004334028344601393
1762361565531428000,7.581427978515625,0.004260258749127388,-0.134958878159523,-0.0054879761300981045
1762361565541405200,7.5914052734375,-0.005799299571663141,-0.1364409327507019,-0.02694852650165558
1762361565551382000,7.601382080078125,-0.011154383420944214,-0.14405730366706848,-0.05188769847154617
1762361565561359000,7.611359130859375,-0.018852783367037773,-0.14533215761184692,-0.07816031575202942
1762361565571336200,7.621336181640625,-0.023246733471751213,-0.1495511382818222,-0.09384234249591827
1762361565581313000,7.63131298828125,-0.01896064169704914,-0.14551138877868652,-0.0882481038570404
1762361565591290000,7.6412900390625,-0.013822072185575962,-0.14299896359443665,-0.07145660370588303
1762361565601267200,7.65126708984375,0.0008905610884539783,-0.14925552904605865,-0.04880215972661972
1762361565611244300,7.661244384765625,0.017297230660915375,-0.14189109206199646,-0.02534344047307968
1762361565621221000,7.67122119140625,0.02401665225625038,-0.12376108765602112,-0.0015454323729500175
1762361565631198200,7.6811982421875,0.028957881033420563,-0.11685232073068619,0.011020692996680737
1762361565641175300,7.69117529296875,0.03442348912358284,-0.12086836248636246,0.009825998917222023
1762361565651152100,7.701152099609375,0.04181242734193802,-0.13371039927005768,-0.002120675053447485
1762361565661129200,7.711129150390625,0.04091387614607811,-0.16433914005756378,-0.01233496330678463
1762361565671106000,7.72110595703125,0.040942106395959854,-0.1997985988855362,-0.01678430661559105
1762361565681084200,7.731084228515625,0.03196725249290466,-0.23106278479099274,-0.012801814824342728
1762361565691061200,7.741061279296875,0.027769578620791435,-0.24988040328025818,-0.0037851508241146803
1762361565701038000,7.7510380859375,0.02532959170639515,-0.25784993171691895,0.00621129060164094
1762361565711015200,7.76101513671875,0.02737116999924183,-0.2537262737751007,0.014937670901417732
1762361565720992000,7.770991943359375,0.027183949947357178,-0.24448297917842865,0.01847141794860363
1762361565730969000,7.780968994140625,0.02582414075732231,-0.23492516577243805,0.014925952069461346
1762361565740946200,7.7909462890625,0.021287711337208748,-0.22234758734703064,0.009154882282018661
1762361565750923300,7.80092333984375,0.0161249078810215,-0.21670009195804596,0.0012343751732259989
1762361565760900400,7.810900390625,0.008142082020640373,-0.2324438989162445,0.0005020058597438037
1762361565770877200,7.820877197265625,0.00777749577537179,-0.2489514946937561,0.007104514632374048
1762361565780854300,7.830854248046875,0.010716826654970646,-0.25405651330947876,0.022058431059122086
1762361565790831000,7.8408310546875,0.012119246646761894,-0.25217339396476746,0.0421178936958313
1762361565800808200,7.85080810546875,0.017898572608828545,-0.24270053207874298,0.058989282697439194
1762361565810785000,7.860784912109375,0.024232901632785797,-0.23332592844963074,0.0632772371172905
1762361565820762000,7.87076220703125,0.030782679095864296,-0.23682905733585358,0.055697083473205566
1762361565830739500,7.880739501953125,0.028297418728470802,-0.24550004303455353,0.042326416820287704
1762361565840717600,7.890717529296875,0.030790669843554497,-0.24014230072498322,0.035522572696208954
1762361565850694400,7.9006943359375,0.03419498726725578,-0.23587989807128906,0.03193849325180054
1762361565860671500,7.91067138671875,0.03412814438343048,-0.242381751537323,0.024761006236076355
1762361565870648600,7.920648681640625,0.03615480661392212,-0.24080276489257812,0.013843909837305546
1762361565880625400,7.93062548828125,0.0368855781853199,-0.2325671911239624,0.0002593918761704117
1762361565890602500,7.9406025390625,0.03175180405378342,-0.21750515699386597,-0.007728226948529482
1762361565900579300,7.950579345703125,0.023425165563821793,-0.1890018731355667,-0.015440475195646286
1762361565910556700,7.960556640625,0.021566810086369514,-0.15321564674377441,-0.024453144520521164
1762361565920533500,7.970533447265625,0.02279612608253956,-0.12102655321359634,-0.03193902596831322
1762361565930510600,7.980510498046875,0.025472071021795273,-0.10979733616113663,-0.04229472577571869
1762361565940487700,7.99048779296875,0.02370772697031498,-0.11268740147352219,-0.05029619485139847
1762361565950464500,8.000464599609375,0.02273966744542122,-0.11656629294157028,-0.05327760428190231
1762361565960441600,8.010441650390625,0.024537034332752228,-0.11406505107879639,-0.052503153681755066
1762361565970418400,8.02041845703125,0.02748834900557995,-0.10092741250991821,-0.04097912460565567
1762361565980395500,8.0303955078125,0.030772559344768524,-0.09057197719812393,-0.028138160705566406
1762361565990372400,8.040372314453125,0.026485934853553772,-0.08504512161016464,-0.017523599788546562
1762361566000349400,8.050349365234375,0.02095082215964794,-0.07040519267320633,-0.011414574459195137
1762361566010327600,8.06032763671875,0.019826168194413185,-0.05610055476427078,-0.014165620319545269
1762361566020304400,8.070304443359374,0.01443859376013279,-0.05938849225640297,-0.019362246617674828
1762361566030281500,8.080281494140625,0.011510448530316353,-0.07724019140005112,-0.02004534751176834
1762361566040258600,8.090258544921875,0.006616090890020132,-0.10991264879703522,-0.0140196792781353
1762361566050235400,8.1002353515625,0.008628109470009804,-0.13109543919563293,-0.002531068166717887
1762361566060212700,8.110212646484374,0.012978648766875267,-0.13502652943134308,0.011114702560007572
1762361566070189600,8.120189453125,0.015812784433364868,-0.128945991396904,0.02388429455459118
1762361566080166700,8.130166748046875,0.018033063039183617,-0.11524882912635803,0.03466450423002243
1762361566090143500,8.1401435546875,0.014706241898238659,-0.10635226964950562,0.03726561367511749
1762361566100120600,8.15012060546875,0.013788516633212566,-0.10813046246767044,0.031258851289749146
1762361566110097700,8.16009765625,0.01938168704509735,-0.1125774085521698,0.020794227719306946
1762361566120074500,8.170074462890625,0.0237005352973938,-0.12680721282958984,0.007869108580052853
1762361566130051600,8.180051513671875,0.027689151465892792,-0.13844016194343567,0.0040975394658744335
1762361566140028400,8.1900283203125,0.025858229026198387,-0.1453217715024948,0.005407015793025494
1762361566150005500,8.200005615234375,0.03092329390347004,-0.15792572498321533,0.006328203249722719
1762361566159982300,8.209982421875,0.033126261085271835,-0.16505339741706848,0.006374808494001627
1762361566169960400,8.21996044921875,0.03749997168779373,-0.16853441298007965,0.00851758848875761
1762361566179937500,8.2299375,0.03556331992149353,-0.1682651787996292,0.0064983791671693325
1762361566189914400,8.239914306640625,0.0320143923163414,-0.17334328591823578,0.006962568499147892
1762361566199891500,8.249891357421875,0.033014941960573196,-0.16333246231079102,0.017582455649971962
1762361566209868500,8.25986865234375,0.02226695604622364,-0.15622742474079132,0.029991189017891884
1762361566219845600,8.269845703125,0.025850240141153336,-0.1622762531042099,0.034697260707616806
1762361566229822700,8.27982275390625,0.037095438688993454,-0.17051048576831818,0.03596758842468262
1762361566239799600,8.289799560546875,0.04588999226689339,-0.17940756678581238,0.03398007154464722
1762361566249776600,8.299776611328125,0.04609638825058937,-0.1904895156621933,0.02333728037774563
1762361566259753500,8.30975341796875,0.04602128639817238,-0.19224746525287628,0.003296727081760764
1762361566269730600,8.31973046875,0.04868897423148155,-0.18453176319599152,-0.022419555112719536
1762361566279707400,8.329707275390625,0.04868657886981964,-0.16900233924388885,-0.03849892318248749
1762361566289684500,8.3396845703125,0.04528944939374924,-0.15766020119190216,-0.04428623989224434
1762361566299661600,8.34966162109375,0.03971332311630249,-0.1535424143075943,-0.03977217897772789
1762361566309638400,8.359638427734374,0.03443999961018562,-0.16825531423091888,-0.033605895936489105
1762361566319615500,8.369615478515625,0.035420309752225876,-0.20466925203800201,-0.027510453015565872
1762361566329592600,8.379592529296875,0.0408097468316555,-0.23375044763088226,-0.012716594152152538
1762361566339569700,8.389569580078126,0.047143276780843735,-0.2378956526517868,0.0064773401245474815
1762361566349547500,8.399547607421875,0.051356930285692215,-0.23381727933883667,0.023026755079627037
1762361566359524600,8.409524658203125,0.053163617849349976,-0.22042478621006012,0.03767520561814308
1762361566369501700,8.419501708984376,0.05383846536278725,-0.195909321308136,0.037331923842430115
1762361566379478500,8.429478515625,0.04681997001171112,-0.17361173033714294,0.023934094235301018
1762361566389455600,8.43945556640625,0.045276932418346405,-0.16599136590957642,-0.0004780374001711607
1762361566399432400,8.449432373046875,0.04421113803982735,-0.16155320405960083,-0.019543606787919998
1762361566409409500,8.459409423828125,0.03626985847949982,-0.17129851877689362,-0.02671017311513424
1762361566419386600,8.46938671875,0.024684840813279152,-0.19335108995437622,-0.01908234879374504
1762361566429363500,8.479363525390625,0.024698954075574875,-0.20367616415023804,0.0011342403013259172
1762361566439340500,8.489340576171875,0.02329174056649208,-0.20476539433002472,0.02509070560336113
1762361566449317400,8.4993173828125,0.01828579604625702,-0.2018556296825409,0.03987843915820122
1762361566459294500,8.50929443359375,0.01483300793915987,-0.20299145579338074,0.03930053487420082
1762361566469271300,8.519271240234374,0.00737429317086935,-0.21763059496879578,0.02882392518222332
1762361566479248600,8.52924853515625,-0.0027864654548466206,-0.2404155284166336,0.020199012011289597
1762361566489225700,8.539225830078125,-0.011998872272670269,-0.2562514841556549,0.01920245587825775
1762361566499202600,8.54920263671875,-0.017662616446614265,-0.27020007371902466,0.020111925899982452
1762361566509179600,8.5591796875,-0.013618340715765953,-0.2788153886795044,0.023240873590111732
1762361566519156500,8.569156494140625,-0.006105829495936632,-0.27441343665122986,0.010359164327383041
1762361566529134600,8.579134521484375,-0.0043982104398310184,-0.25944381952285767,-0.012255067937076092
1762361566539111700,8.589111572265624,-0.007500793319195509,-0.235341414809227,-0.026991138234734535
1762361566549088500,8.599088623046875,-0.012807141989469528,-0.20400665700435638,-0.028244953602552414
1762361566559065600,8.609065673828125,-0.01582050882279873,-0.173832505941391,-0.018064487725496292
1762361566569042400,8.61904248046875,-0.015855129808187485,-0.15978993475437164,-0.0059572248719632626
1762361566579019500,8.62901953125,-0.01007766742259264,-0.15658214688301086,0.005980394314974546
1762361566588996600,8.63899658203125,-0.0009169263648800552,-0.1629718691110611,0.017413876950740814
1762361566598973400,8.648973388671875,0.006539658177644014,-0.17429935932159424,0.02551574632525444
1762361566608950500,8.658950439453125,0.0033907366450875998,-0.17818331718444824,0.0272502638399601
1762361566618927400,8.66892724609375,0.0010921623324975371,-0.18224863708019257,0.0316426157951355
1762361566628904700,8.67890478515625,-0.0008588694618083537,-0.16800151765346527,0.040596429258584976
1762361566638881500,8.688881591796875,-0.0075724320486187935,-0.1498217135667801,0.05985188111662865
1762361566648858600,8.698858642578125,-0.006040049251168966,-0.15228833258152008,0.06886348873376846
1762361566658835700,8.708835693359376,-0.005013933405280113,-0.17593906819820404,0.06414303183555603
1762361566668812500,8.7188125,0.000017310547264060006,-0.20058876276016235,0.05535140633583069
1762361566678789600,8.72878955078125,0.004237888380885124,-0.21567396819591522,0.05485925450921059
1762361566688766500,8.738766357421875,0.00130920996889472,-0.20692388713359833,0.0616828054189682
1762361566698743600,8.74874365234375,-0.0017965685110539198,-0.171234592795372,0.06326552480459213
1762361566708720400,8.758720458984374,-0.0021848573815077543,-0.142917200922966,0.05633784085512161
1762361566718698500,8.768698486328125,-0.004209125880151987,-0.12566524744033813,0.04752624034881592
1762361566728675600,8.778675537109375,0.0026551715563982725,-0.11215449869632721,0.04029815271496773
1762361566738652400,8.78865234375,0.007918376475572586,-0.10483613610267639,0.035711657255887985
1762361566748629500,8.79862939453125,0.016506005078554153,-0.10008052736520767,0.02743348851799965
1762361566758606300,8.8086064453125,0.024027571082115173,-0.09613585472106934,0.015734221786260605
1762361566768583400,8.81858349609375,0.03177417442202568,-0.10603588819503784,0.011322962120175362
1762361566778560500,8.828560546875,0.03525146469473839,-0.1204928606748581,0.014855112880468369
1762361566788537600,8.83853759765625,0.0329667367041111,-0.12877289950847626,0.02052338421344757
1762361566798514700,8.8485146484375,0.03238696977496147,-0.11626535654067993,0.024510668590664864
1762361566808491500,8.858491455078125,0.031185349449515343,-0.10466702282428741,0.023965787142515182
1762361566818468600,8.868468505859376,0.024115722626447678,-0.10542070120573044,0.017255952581763268
1762361566828445700,8.87844580078125,0.02225603722035885,-0.10157056897878647,0.010838532820343971
1762361566838422800,8.8884228515625,0.0205172598361969,-0.10073806345462799,0.006010754499584436
1762361566848399600,8.898399658203125,0.01739843189716339,-0.0999087542295456,0.0046964846551418304
1762361566858376700,8.908376708984376,0.01426628790795803,-0.10018971562385559,0.0021646174136549234
1762361566868353500,8.918353515625,0.015238607302308083,-0.10886256396770477,0.002413090318441391
1762361566878330600,8.92833056640625,0.012648417614400387,-0.12101989984512329,-0.009553291834890842
1762361566888307700,8.9383076171875,0.01034638099372387,-0.1302647888660431,-0.017423996701836586
1762361566898284800,8.948284912109376,0.014713166281580925,-0.1373717039823532,-0.021199295297265053
1762361566908262700,8.9582626953125,0.020293287932872772,-0.1386236548423767,-0.030914505943655968
1762361566918239500,8.968239501953125,0.022770825773477554,-0.1318613588809967,-0.042938679456710815
1762361566928216600,8.978216552734375,0.024958878755569458,-0.12246253341436386,-0.04970816895365715
1762361566938194000,8.98819384765625,0.029451366513967514,-0.1336219757795334,-0.04604472219944
1762361566948170800,8.998170654296874,0.03614708408713341,-0.13872778415679932,-0.0396970771253109
1762361566958147800,9.00814794921875,0.04213413596153259,-0.1471540331840515,-0.037870150059461594
1762361566968124700,9.018124755859375,0.04803543537855148,-0.15722744166851044,-0.03416622430086136
1762361566978101800,9.028101806640626,0.05028500780463219,-0.15374402701854706,-0.029952039942145348
1762361566988078600,9.03807861328125,0.0457906574010849,-0.1428876519203186,-0.025252625346183777
1762361566998055700,9.0480556640625,0.04059722647070885,-0.1469833254814148,-0.020352410152554512
1762361567008032800,9.05803271484375,0.03376275673508644,-0.16270102560520172,-0.01655340939760208
1762361567018009600,9.068009521484376,0.029995182529091835,-0.18447743356227875,-0.009410013444721699
1762361567027986700,9.077986572265624,0.02581482008099556,-0.20127452909946442,0.004210457671433687
1762361567037963500,9.087963623046875,0.021920211613178253,-0.21557091176509857,0.01489479374140501
1762361567047940600,9.097940673828125,0.02419295348227024,-0.2158614546060562,0.024837439879775047
1762361567057917700,9.107917724609376,0.028552282601594925,-0.204520121216774,0.028549619019031525
1762361567067894800,9.117894775390624,0.03362160921096802,-0.18570755422115326,0.029944051057100296
1762361567077871900,9.127871826171875,0.030179208144545555,-0.16657912731170654,0.017973408102989197
1762361567087848700,9.1378486328125,0.03038933128118515,-0.15860402584075928,0.003832022426649928
1762361567097825800,9.14782568359375,0.03130226209759712,-0.15889351069927216,-0.005655222572386265
1762361567107803600,9.1578037109375,0.03334410861134529,-0.1681021898984909,-0.004932973068207502
1762361567117780700,9.16778076171875,0.04073571041226387,-0.18632221221923828,-0.009332515299320221
1762361567127757800,9.1777578125,0.05163762718439102,-0.20240822434425354,-0.01575446128845215
1762361567137734700,9.187734619140626,0.05867822840809822,-0.1923990100622177,-0.016450345516204834
1762361567147711700,9.197711669921874,0.06594972312450409,-0.16211619973182678,-0.01581811159849167
1762361567157688600,9.2076884765625,0.06396273523569107,-0.13826413452625275,-0.022240856662392616
1762361567167665700,9.217665771484375,0.05757301673293114,-0.11756551265716553,-0.034450117498636246
1762361567177642500,9.227642578125,0.05375990271568298,-0.09662720561027527,-0.04759681224822998
1762361567187619600,9.23761962890625,0.04951855167746544,-0.09322501718997955,-0.05008367449045181
1762361567197596700,9.2475966796875,0.04271044582128525,-0.09556886553764343,-0.04483937844634056
1762361567207573800,9.25757373046875,0.03206073120236397,-0.09288999438285828,-0.03260188549757004
1762361567217550800,9.26755078125,0.023482423275709152,-0.09172512590885162,-0.023319704458117485
1762361567227527700,9.277527587890624,0.015016766265034676,-0.10362493246793747,-0.016086557880043983
1762361567237504800,9.2875048828125,0.008076834492385387,-0.1342286467552185,-0.002510561840608716
1762361567247481600,9.297481689453125,0.008753543719649315,-0.16342328488826752,0.01266945619136095
1762361567257458700,9.307458740234376,0.013171995058655739,-0.18148137629032135,0.021390508860349655
1762361567267435800,9.317435791015624,0.018456239253282547,-0.19235852360725403,0.014509966596961021
1762361567277412600,9.32741259765625,0.023976439610123634,-0.2040948122739792,-0.0009600695921108127
1762361567287389700,9.3373896484375,0.01907036453485489,-0.21976777911186218,-0.00860067829489708
1762361567297366500,9.347366455078125,0.02538951300084591,-0.23114240169525146,-0.01528947427868843
1762361567307343600,9.357343505859374,0.031377628445625305,-0.24379615485668182,-0.017295898869633675
1762361567317321700,9.36732177734375,0.02997627481818199,-0.2526586055755615,-0.01128061767667532
1762361567327298600,9.377298583984375,0.025770610198378563,-0.2628353536128998,-0.007327155210077763
1762361567337275600,9.387275634765626,0.03301707282662392,-0.2709505259990692,0.00310524576343596
1762361567347252500,9.39725244140625,0.028382638469338417,-0.25052914023399353,0.02189544588327408
1762361567357229800,9.407229736328125,0.01799151673913002,-0.21495704352855682,0.02984284982085228
1762361567367207000,9.41720703125,0.014161891303956509,-0.19578708708286285,0.031437549740076065
1762361567377183700,9.427183837890626,0.013257215730845928,-0.18779467046260834,0.026369821280241013
1762361567387160800,9.437160888671874,0.01290674414485693,-0.1752178817987442,0.018924156203866005
1762361567397137700,9.4471376953125,0.01727699115872383,-0.1613936871290207,0.0031886028591543436
1762361567407114800,9.45711474609375,0.017231717705726624,-0.1583789885044098,-0.00830746442079544
1762361567417091600,9.467091552734376,0.015668708831071854,-0.161462664604187,-0.0037151097785681486
1762361567427068700,9.477068603515624,0.013283048756420612,-0.16531838476657867,0.006729808170348406
1762361567437045800,9.487045654296875,0.013032178394496441,-0.17017492651939392,0.019574766978621483
1762361567447022600,9.497022705078125,0.010975685901939869,-0.17593587934970856,0.03338831663131714
1762361567456999700,9.506999755859376,0.010075004771351814,-0.18494881689548492,0.03990507125854492
1762361567466976800,9.516976806640624,0.01483487244695425,-0.18825805187225342,0.04668787494301796
1762361567476953900,9.526953857421875,0.02407470904290676,-0.17639900743961334,0.055931974202394485
1762361567486930700,9.5369306640625,0.03291400894522667,-0.15352511405944824,0.05458148568868637
1762361567496907800,9.54690771484375,0.04217807948589325,-0.12874945998191833,0.050873301923274994
1762361567506884900,9.556884765625,0.04694060981273651,-0.09608818590641022,0.03798786178231239
1762361567516861700,9.56686181640625,0.04650704935193062,-0.0758521556854248,0.017945444211363792
1762361567526838800,9.5768388671875,0.04406173527240753,-0.07530008256435394,0.004860535264015198
1762361567536816600,9.586816650390626,0.04537467285990715,-0.0848243460059166,0.002674346324056387
1762361567546793700,9.596793701171874,0.0479760468006134,-0.09739446640014648,0.010163688100874424
1762361567556770800,9.606770751953125,0.05311701446771622,-0.1013532504439354,0.022527679800987244
1762361567566747600,9.61674755859375,0.05978876352310181,-0.0939139798283577,0.031073231250047684
1762361567576724700,9.626724853515626,0.0593448169529438,-0.07399806380271912,0.02473330870270729
1762361567586701600,9.63670166015625,0.054604388773441315,-0.0494847297668457,0.01455950178205967
1762361567596678700,9.6466787109375,0.04776512458920479,-0.028438832610845566,0.004649080336093903
1762361567606655500,9.656655517578125,0.04577681049704552,-0.01380902249366045,0.006376939360052347
1762361567616632600,9.666632568359375,0.04481913521885872,-0.016804812476038933,0.009845173917710781
1762361567626610000,9.67660986328125,0.040830254554748535,-0.024773523211479187,0.007604389917105436
1762361567636586800,9.686586669921875,0.02960502915084362,-0.03038773313164711,0.006396646611392498
1762361567646563800,9.696563720703125,0.02123684622347355,-0.02659192867577076,0.009823336265981197
1762361567656540700,9.706540771484375,0.01781574822962284,-0.022061092779040337,0.023314110934734344
1762361567666517800,9.716517822265626,0.014455637894570827,-0.004220577888190746,0.032942768186330795
1762361567676494600,9.72649462890625,0.010761833749711514,0.019364643841981888,0.03105964884161949
1762361567686471700,9.7364716796875,0.010480071417987347,0.04424096271395683,0.009319998323917389
1762361567696448800,9.74644873046875,0.007357248570770025,0.06190438196063042,-0.019097527489066124
1762361567706425600,9.756425537109376,0.0046882289461791515,0.0699457973241806,-0.04328569024801254
1762361567716402700,9.766402587890624,0.00007590009045088664,0.07149362564086914,-0.05193989723920822
1762361567726379500,9.776379638671875,-0.0016000272007659078,0.07038281857967377,-0.04821280390024185
1762361567736356600,9.786356689453125,-0.0023310647811740637,0.05932590737938881,-0.02786731719970703
1762361567746333700,9.796333740234376,-0.0017294568242505193,0.053890395909547806,-0.004126567859202623
1762361567756311600,9.8063115234375,-0.0025811356026679277,0.05434739589691162,0.020381171256303787
1762361567766288600,9.81628857421875,-0.006824616342782974,0.06649433821439743,0.037758562713861465
1762361567776265700,9.826265625,-0.011113104410469532,0.09627780318260193,0.05095399543642998
1762361567786242800,9.836242919921874,-0.008025968447327614,0.1411304920911789,0.05798553675413132
1762361567796219600,9.8462197265625,-0.010029198601841927,0.1758517175912857,0.05061018094420433
1762361567806196700,9.85619677734375,-0.0148662980645895,0.18531712889671326,0.03916231542825699
1762361567816173800,9.866173828125,-0.022731676697731018,0.1761675775051117,0.02953765168786049
1762361567826150700,9.876150634765626,-0.02961275354027748,0.1573299616575241,0.021863486617803574
1762361567836127000,9.886126953125,-0.0344834066927433,0.1313694715499878,0.025431856513023376
1762361567846103800,9.896103759765625,-0.0359761118888855,0.11333481222391129,0.027692347764968872
1762361567856081000,9.906080810546875,-0.03578995540738106,0.10573787987232208,0.02448323927819729
1762361567866058000,9.91605810546875,-0.03870372101664543,0.10078253597021103,0.025858495384454727
1762361567876035000,9.92603515625,-0.03997005149722099,0.11029215157032013,0.030278809368610382
1762361567886012000,9.936011962890625,-0.040280044078826904,0.12094319611787796,0.03185193985700607
1762361567895989000,9.945989013671875,-0.03323465213179588,0.14265142381191254,0.04295705258846283
1762361567905966000,9.955966064453126,-0.03461683169007301,0.16407255828380585,0.05673917755484581
1762361567915943000,9.96594287109375,-0.03371668606996536,0.18111838400363922,0.052555885165929794
1762361567925920000,9.975919921875,-0.03027108684182167,0.18925940990447998,0.039145272225141525
1762361567935896800,9.985896728515625,-0.01937476359307766,0.1941297948360443,0.022963639348745346
1762361567945874000,9.9958740234375,-0.010092581622302532,0.20141273736953735,0.010637464001774788
1762361567955850800,10.005850830078124,-0.0014982944121584296,0.20611189305782318,0.017560617998242378
1762361567965827800,10.015827880859375,0.003567304229363799,0.21274209022521973,0.04772171750664711
1762361567975805000,10.025804931640625,0.004581968765705824,0.21928921341896057,0.08015608787536621
1762361567985782000,10.035781982421875,0.0030423952266573906,0.2387728989124298,0.11219391226768494
1762361567995759900,10.045759765625,0.005687446799129248,0.2837204039096832,0.1423424929380417
1762361568005737000,10.055737060546875,-0.000752875639591366,0.314480185508728,0.1533253788948059
1762361568015714000,10.065714111328125,-0.01296160463243723,0.3254438638687134,0.14595134556293488
1762361568025691100,10.075691162109376,-0.026699254289269447,0.3329305648803711,0.1397741436958313
1762361568035668000,10.08566796875,-0.038780685514211655,0.3391847312450409,0.13527126610279083
1762361568045645000,10.09564501953125,-0.04771958664059639,0.33277714252471924,0.13470108807086945
1762361568055622000,10.105621826171875,-0.048766206949949265,0.3311387896537781,0.12401808798313141
1762361568065599000,10.115598876953126,-0.03464586287736893,0.3398055136203766,0.09644558280706406
1762361568075576000,10.125576171875,-0.02605237253010273,0.34968477487564087,0.059120576828718185
1762361568085553000,10.135552978515625,-0.02292928472161293,0.3746100962162018,0.013942181132733822
1762361568095530000,10.145530029296875,-0.022223014384508133,0.40727829933166504,-0.031255390495061874
1762361568105506800,10.1555068359375,-0.02540282905101776,0.43166032433509827,-0.06603387743234634
1762361568115484000,10.16548388671875,-0.030420755967497826,0.44781187176704407,-0.08922148495912552
1762361568125460700,10.175460693359375,-0.035652801394462585,0.45202845335006714,-0.08806701004505157
1762361568135438000,10.18543798828125,-0.03927683085203171,0.4361131191253662,-0.06046760454773903
1762361568145415000,10.195414794921875,-0.032398421317338943,0.40894755721092224,-0.020064521580934525
1762361568155392000,10.20539208984375,-0.017121195793151855,0.3878616988658905,0.015430355444550514
1762361568165369000,10.215369140625,0.013993579894304276,0.3842102587223053,0.03484959155321121
1762361568175346000,10.225345947265625,0.040644899010658264,0.38437509536743164,0.033177658915519714
1762361568185323000,10.235322998046875,0.05979648977518082,0.36514654755592346,0.017068998888134956
1762361568195299800,10.2452998046875,0.05850671976804733,0.3521210253238678,0.011056379415094852
1762361568205277000,10.25527685546875,0.04644899070262909,0.37051573395729065,0.02538285404443741
1762361568215253800,10.265253662109375,0.02822338230907917,0.39791035652160645,0.05384725332260132
1762361568225230800,10.27523095703125,0.012291020713746548,0.4027426540851593,0.08251191675662994
1762361568235208000,10.2852080078125,0.013932859525084496,0.39539259672164917,0.10965858399868011
1762361568245185800,10.295185791015625,0.022171348333358765,0.37721413373947144,0.12064705789089203
1762361568255163000,10.305162841796875,0.02616821974515915,0.3456226587295532,0.1226462870836258
1762361568265140000,10.315139892578125,0.025476330891251564,0.3140564560890198,0.11670450866222382
1762361568275116800,10.32511669921875,0.028598088771104813,0.3071327805519104,0.10246539115905762
1762361568285094100,10.33509423828125,0.03104313649237156,0.3232662081718445,0.0711870938539505
1762361568295071000,10.345071044921875,0.032769396901130676,0.3496592044830322,0.02990889735519886
1762361568305048000,10.355048095703125,0.029987460002303123,0.36340296268463135,-0.012356800958514214
1762361568315025000,10.36502490234375,0.015245531685650349,0.36757826805114746,-0.0447634756565094
1762361568325002000,10.375001953125,-0.0005435511702671647,0.3639238774776459,-0.06500642746686935
1762361568334979000,10.38497900390625,-0.012928848154842854,0.35525450110435486,-0.07292001694440842
1762361568344956000,10.394955810546875,-0.021208882331848145,0.3416540026664734,-0.06551056355237961
1762361568354933000,10.40493310546875,-0.02454688772559166,0.3342466950416565,-0.04999898374080658
1762361568364909800,10.414909912109374,-0.022538332268595695,0.3325555920600891,-0.027571706101298332
1762361568374887000,10.424886962890625,-0.019466375932097435,0.31492704153060913,-0.008109591901302338
1762361568384863700,10.43486376953125,-0.015489477664232254,0.30473166704177856,0.006674148142337799
1762361568394840800,10.4448408203125,-0.01206704881042242,0.30574527382850647,0.011683554388582706
1762361568404818200,10.454818115234374,-0.008715194649994373,0.3156530261039734,-0.0054906392470002174
1762361568414795000,10.464794921875,-0.0015755260828882456,0.3349795937538147,-0.0406065471470356
1762361568424772000,10.474772216796875,-0.010005496442317963,0.35249388217926025,-0.08594952523708344
1762361568434749000,10.4847490234375,-0.02400040812790394,0.36970242857933044,-0.1322251409292221
1762361568444726000,10.49472607421875,-0.03765097260475159,0.39343172311782837,-0.16489361226558685
1762361568454702800,10.504702880859375,-0.04669347032904625,0.41289249062538147,-0.17592309415340424
1762361568464680000,10.514679931640625,-0.05143709108233452,0.4240277111530304,-0.15774808824062347
1762361568474657000,10.524656982421876,-0.04424336180090904,0.43362653255462646,-0.11516520380973816
1762361568484633900,10.5346337890625,-0.03395317494869232,0.4287814497947693,-0.06392651796340942
1762361568494611000,10.54461083984375,-0.02058250643312931,0.41822442412376404,-0.018324678763747215
1762361568504587800,10.554587890625,0.00034461304312571883,0.40693554282188416,0.011392204090952873
1762361568514566000,10.56456591796875,0.026197781786322594,0.3961217701435089,0.02491680160164833
1762361568524543000,10.57454296875,0.0545244961977005,0.4095526337623596,0.01275947131216526
1762361568534519800,10.584519775390625,0.06587435305118561,0.43855923414230347,-0.028210332617163658
1762361568544497000,10.594496826171875,0.06408524513244629,0.4441835880279541,-0.08445283025503159
1762361568554474000,10.604473876953126,0.06604426354169846,0.42919477820396423,-0.13662868738174438
1762361568564451000,10.614451171875,0.051710598170757294,0.40685564279556274,-0.15693262219429016
1762361568574428000,10.624427978515625,0.024708809331059456,0.4089030921459198,-0.13156601786613464
1762361568584405000,10.634405029296875,-0.002329733222723007,0.43959203362464905,-0.08107434958219528
1762361568594382000,10.644382080078126,-0.024567659944295883,0.4659069776535034,-0.02149224281311035
1762361568604359000,10.65435888671875,-0.035764921456575394,0.4716905653476715,0.03623843193054199
1762361568614336000,10.6643359375,-0.039856601506471634,0.4550743103027344,0.07987086474895477
1762361568624312800,10.674312744140625,-0.038117825984954834,0.43229416012763977,0.09467431157827377
1762361568634290000,10.6842900390625,-0.029378928244113922,0.40917447209358215,0.08216118067502975
1762361568644266800,10.694266845703124,-0.021945245563983917,0.3953547775745392,0.044194091111421585
1762361568654243800,10.704243896484375,-0.02304912731051445,0.3710545003414154,-0.0014484933344647288
1762361568664221000,10.714220947265625,-0.028673723340034485,0.3394606113433838,-0.03754764050245285
1762361568674198000,10.724197998046876,-0.032229308038949966,0.315573126077652,-0.05116278678178787
1762361568684175000,10.734175048828124,-0.03580966219305992,0.30028340220451355,-0.04737070947885513
1762361568694152000,10.74415185546875,-0.039191875606775284,0.28797081112861633,-0.02991582080721855
1762361568704129000,10.75412890625,-0.04475894942879677,0.29258444905281067,-0.0008008125587366521
1762361568714105900,10.76410595703125,-0.04830867797136307,0.2928329408168793,0.025557823479175568
1762361568724083000,10.7740830078125,-0.04884716868400574,0.29643434286117554,0.04845275357365608
1762361568734060000,10.78406005859375,-0.044012464582920074,0.30984732508659363,0.054233942180871964
1762361568744036900,10.794036865234375,-0.03331534564495087,0.32298603653907776,0.04613899812102318
1762361568754014000,10.804013916015625,-0.03173422813415527,0.34160658717155457,0.03098907507956028
1762361568763990800,10.81399072265625,-0.027532292529940605,0.3682105243206024,-0.0010194580536335707
1762361568773968000,10.8239677734375,-0.03152090683579445,0.3892279267311096,-0.03838387504220009
1762361568783946000,10.833946044921875,-0.03584721311926842,0.3993857502937317,-0.06950477510690689
1762361568793922800,10.8439228515625,-0.036740705370903015,0.40548065304756165,-0.09325937181711197
1762361568803900000,10.85389990234375,-0.040592700242996216,0.39687013626098633,-0.09913910180330276
1762361568813877000,10.863876953125,-0.04410088062286377,0.37793105840682983,-0.09074002504348755
1762361568823854000,10.87385400390625,-0.047090012580156326,0.3651910126209259,-0.0639779195189476
1762361568833831400,10.88383154296875,-0.05433860421180725,0.3455086648464203,-0.02004268392920494
1762361568843808500,10.89380859375,-0.059841495007276535,0.33028629422187805,0.017529990524053574
1762361568853785600,10.90378564453125,-0.06019036844372749,0.32840558886528015,0.049678605049848557
1762361568863762400,10.913762451171875,-0.06281677633523941,0.34442901611328125,0.053290918469429016
1762361568873739500,10.923739501953126,-0.06694920361042023,0.379232257604599,0.038234736770391464
1762361568883716400,10.93371630859375,-0.07623591274023056,0.4273771643638611,0.01830150932073593
1762361568893693400,10.943693359375,-0.08578894287347794,0.45488840341567993,0.0003856257244478911
1762361568903670500,10.95367041015625,-0.09310784190893173,0.4588663876056671,-0.002144643571227789
1762361568913647400,10.9636474609375,-0.0913192629814148,0.4436147212982178,0.016217319294810295
1762361568923624400,10.97362451171875,-0.08397825807332993,0.4154461920261383,0.04809136316180229
1762361568933601300,10.983601318359375,-0.07742688059806824,0.37651771306991577,0.0757506862282753
1762361568943578400,10.993578369140625,-0.06328336149454117,0.3309638202190399,0.09388228505849838
1762361568953555500,11.003555419921875,-0.054478686302900314,0.2963744103908539,0.1003471091389656
1762361568963532500,11.013532470703124,-0.04910575971007347,0.26461514830589294,0.08745048940181732
1762361568973509600,11.023509521484375,-0.05244909226894379,0.24868625402450562,0.06540244072675705
1762361568983486500,11.033486572265625,-0.05596579611301422,0.23570680618286133,0.03881530463695526
1762361568993463600,11.043463623046875,-0.0669044628739357,0.22141094505786896,0.017527595162391663
1762361569003440400,11.0534404296875,-0.07842769473791122,0.18079614639282227,-0.007419033907353878
1762361569013417500,11.06341748046875,-0.08926835656166077,0.14848747849464417,-0.018994996324181557
1762361569023394300,11.073394287109375,-0.0943981409072876,0.1580873727798462,-0.015132613480091095
1762361569033371400,11.083371337890625,-0.09978225082159042,0.19785448908805847,0.004216316621750593
1762361569043348500,11.093348388671876,-0.1044694185256958,0.23838460445404053,0.020081033930182457
1762361569053325300,11.1033251953125,-0.10330774635076523,0.280043363571167,0.022587867453694344
1762361569063302400,11.113302490234375,-0.0971345379948616,0.31855881214141846,0.010976218618452549
1762361569073279500,11.123279541015625,-0.08600146323442459,0.3583672046661377,-0.010006560944020748
1762361569083256600,11.133256591796876,-0.07887111604213715,0.38740313053131104,-0.01543781254440546
1762361569093233400,11.1432333984375,-0.07009013742208481,0.40143612027168274,0.004953745752573013
1762361569103211500,11.15321142578125,-0.053957242518663406,0.3602849543094635,0.03940226882696152
1762361569113188600,11.163188720703126,-0.05931472405791283,0.32355543971061707,0.046608515083789825
1762361569123165400,11.17316552734375,-0.049253031611442566,0.2921317219734192,0.029455360025167465
1762361569133142500,11.183142578125,-0.03611592575907707,0.24574825167655945,0.0003049319493584335
1762361569143119400,11.193119384765625,-0.037635259330272675,0.22841772437095642,-0.027357587590813637
1762361569153096400,11.203096435546875,-0.049974482506513596,0.22128765285015106,-0.038122884929180145
1762361569163073500,11.213073486328126,-0.060993846505880356,0.21132077276706696,-0.03508102148771286
1762361569173050400,11.22305029296875,-0.06711378693580627,0.22137926518917084,-0.026920298114418983
1762361569183027500,11.23302734375,-0.07000012695789337,0.23401916027069092,-0.027849474921822548
1762361569193004300,11.24300439453125,-0.07387076318264008,0.23638030886650085,-0.03181998059153557
1762361569202981400,11.2529814453125,-0.07504681497812271,0.2357427477836609,-0.03254782408475876
1762361569212958200,11.262958251953124,-0.0751781091094017,0.2274688482284546,-0.03442614898085594
1762361569222935600,11.272935546875,-0.07211493700742722,0.20945867896080017,-0.04848897084593773
1762361569232912600,11.28291259765625,-0.06688955426216125,0.1731206476688385,-0.05378440022468567
1762361569242889500,11.292889404296876,-0.05949581786990166,0.13289174437522888,-0.04427638277411461
1762361569252866600,11.302866455078124,-0.05864493548870087,0.10570166260004044,-0.020559070631861687
1762361569262843400,11.312843505859375,-0.05529041960835457,0.11326637119054794,0.013610617257654667
1762361569272820500,11.322820556640625,-0.052129779011011124,0.12296932935714722,0.03874712809920311
1762361569282797300,11.33279736328125,-0.043716054409742355,0.11357583105564117,0.04710546135902405
1762361569292774400,11.3427744140625,-0.039265647530555725,0.10617543756961823,0.04429209604859352
1762361569302751500,11.35275146484375,-0.03801529109477997,0.10002460330724716,0.034519094973802567
1762361569312728300,11.362728271484375,-0.038242459297180176,0.10088613629341125,0.0212448351085186
1762361569322705400,11.372705322265626,-0.03707173466682434,0.10107788443565369,0.0022032330743968487
1762361569332682500,11.3826826171875,-0.04056686908006668,0.09313633292913437,-0.01625140756368637
1762361569342659600,11.39265966796875,-0.0434260368347168,0.078005850315094,-0.033257823437452316
1762361569352636400,11.402636474609375,-0.041182588785886765,0.0771656259894371,-0.034935347735881805
1762361569362613500,11.412613525390626,-0.03647225722670555,0.08730906993150711,-0.028269987553358078
1762361569372590600,11.422590576171874,-0.036372389644384384,0.09171873331069946,-0.013292369432747364
1762361569382567400,11.4325673828125,-0.037814754992723465,0.09956493973731995,0.0025712819769978523
1762361569392544500,11.44254443359375,-0.04487745836377144,0.11089722067117691,0.017831195145845413
1762361569402521300,11.452521240234375,-0.054727692157030106,0.14002634584903717,0.030770961195230484
1762361569412498400,11.46249853515625,-0.05896637961268425,0.1641777604818344,0.03964434936642647
1762361569422476500,11.4724765625,-0.05940420553088188,0.16381050646305084,0.045034587383270264
1762361569432453400,11.482453369140625,-0.0559234544634819,0.17908373475074768,0.048886582255363464
1762361569442430500,11.492430419921876,-0.05802548676729202,0.20475633442401886,0.05621746554970741
1762361569452407300,11.5024072265625,-0.05570906773209572,0.23684610426425934,0.06323036551475525
1762361569462384400,11.51238427734375,-0.05043734237551689,0.2807648181915283,0.06886401772499084
1762361569472361500,11.522361572265625,-0.04519757255911827,0.30733251571655273,0.060687582939863205
1762361569482338300,11.53233837890625,-0.04547880217432976,0.3026845157146454,0.038974829018116
1762361569492315600,11.542315673828124,-0.045156825333833694,0.2666380703449249,0.010374077595770359
1762361569502292500,11.55229248046875,-0.041315481066703796,0.24043071269989014,-0.002951048780232668
1762361569512269600,11.56226953125,-0.03475851193070412,0.2469719648361206,0.00293347192928195
1762361569522246400,11.572246337890626,-0.02111487276852131,0.27330076694488525,0.017958227545022964
1762361569532223500,11.582223388671874,-0.01245027780532837,0.30487096309661865,0.03888880833983421
1762361569542200600,11.59220068359375,-0.0036522590089589357,0.3344525396823883,0.051727376878261566
1762361569552177400,11.602177490234375,-0.00401737866923213,0.34367480874061584,0.053519949316978455
1762361569562154500,11.612154541015625,-0.003311640815809369,0.3567922115325928,0.050519101321697235
1762361569572131300,11.62213134765625,-0.00044581317342817783,0.36590421199798584,0.04360766336321831
1762361569582108400,11.6321083984375,0.006820355542004108,0.3645894229412079,0.02641190029680729
1762361569592085200,11.642085205078125,0.008885104209184647,0.35208240151405334,0.0070336745120584965
1762361569602062300,11.652062255859375,0.011441739276051521,0.33263468742370605,-0.005949235521256924
1762361569612039700,11.662039794921874,0.009278186596930027,0.3120093047618866,-0.00390339526347816
1762361569622016500,11.6720166015625,0.005625128746032715,0.2981904149055481,0.0011414308100938797
1762361569631993600,11.68199365234375,0.006061887368559837,0.286955863237381,0.0016948357224464417
1762361569641970400,11.691970458984375,0.010558901354670525,0.2950705289840698,-0.0038722362369298935
1762361569651947500,11.701947509765626,0.01594327948987484,0.29935023188591003,-0.01269608736038208
1762361569661924400,11.71192431640625,0.020964670926332474,0.2995523512363434,-0.022942867130041122
1762361569671901400,11.7219013671875,0.02335246093571186,0.31055787205696106,-0.02570190094411373
1762361569681878500,11.73187841796875,0.022312762215733528,0.33903825283050537,-0.01660054735839367
1762361569691855400,11.74185546875,0.018550515174865723,0.3757411241531372,-0.01179194450378418
1762361569701832400,11.75183251953125,0.01452887523919344,0.40474721789360046,-0.02058197371661663
1762361569711809300,11.761809326171875,0.005607285536825657,0.42100420594215393,-0.04351338744163513
1762361569721786600,11.77178662109375,-0.005197159014642239,0.4150792062282562,-0.07599010318517685
1762361569731763500,11.781763427734376,-0.016462063416838646,0.39929893612861633,-0.11080614477396011
1762361569741740500,11.791740478515624,-0.02738501876592636,0.3896194100379944,-0.13848544657230377
1762361569751717600,11.801717529296875,-0.044013265520334244,0.3752572238445282,-0.15097592771053314
1762361569761694500,11.811694580078125,-0.048162203282117844,0.3731219172477722,-0.14290176331996918
1762361569771671600,11.821671630859376,-0.05019446089863777,0.3941052258014679,-0.11185489594936371
1762361569781648400,11.8316484375,-0.0501427948474884,0.4255920350551605,-0.06645838916301727
1762361569791626500,11.84162646484375,-0.04995131492614746,0.45568975806236267,-0.023196665570139885
1762361569801603600,11.851603515625,-0.049671947956085205,0.45919182896614075,0.00974450632929802
1762361569811580400,11.861580322265626,-0.051300473511219025,0.4391733705997467,0.030650587752461433
1762361569821557500,11.8715576171875,-0.05152337998151779,0.40355759859085083,0.04110029712319374
1762361569831534000,11.8815341796875,-0.04693368822336197,0.3597126305103302,0.040282975882291794
1762361569841511200,11.89151123046875,-0.04114796966314316,0.3249993920326233,0.02918851189315319
1762361569851488000,11.901488037109376,-0.0338226780295372,0.3118428587913513,0.01944294013082981
1762361569861465000,11.911465087890624,-0.03285462036728859,0.3142945468425751,0.009584716521203518
1762361569871442200,11.921442138671875,-0.036368925124406815,0.3078462481498718,0.004733236040920019
1762361569881419300,11.931419189453125,-0.036604348570108414,0.2855726182460785,0.007121026515960693
1762361569891396000,11.94139599609375,-0.038774825632572174,0.2614379823207855,0.010098706930875778
1762361569901373200,11.951373291015624,-0.038546059280633926,0.24425368010997772,0.010782074183225632
1762361569911350300,11.961350341796875,-0.02953658625483513,0.21827055513858795,0.010012419894337654
1762361569921327000,11.9713271484375,-0.02147866040468216,0.19887661933898926,0.009611082263290882
1762361569931304200,11.98130419921875,-0.01194081548601389,0.19891096651554108,0.01725994609296322
1762361569941281000,11.991281005859374,-0.005577724426984787,0.19131803512573242,0.024355141445994377
1762361569951258000,12.001258056640625,-0.002020540414378047,0.18402735888957977,0.026310699060559273
1762361569961235000,12.01123486328125,0.006602508947253227,0.1780642718076706,0.016864467412233353
